ReactivityImage2,ImageCategory,SoundFile,CorrectAns,reac_2_loop.thisRepN,reac_2_loop.thisTrialN,reac_2_loop.thisN,reac_2_loop.thisIndex,slide1_headphones.started,slide1_headphones.stopped,slide1_headphones_resp.keys,slide1_headphones_resp.rt,slide1_headphones_resp.started,slide1_headphones_resp.stopped,reac_info_1.started,reac_info_1.stopped,reac_info_1_resp.keys,reac_info_1_resp.rt,reac_info_1_resp.started,reac_info_1_resp.stopped,reac_info_2.started,reac_info_2.stopped,reac_info_2_resp.keys,reac_info_2_resp.rt,reac_info_2_resp.started,reac_info_2_resp.stopped,reac_info_3.started,reac_info_3.stopped,reac_info_3_resp.keys,reac_info_3_resp.rt,reac_info_3_resp.started,reac_info_3_resp.stopped,blank_5seconds.started,blank_5seconds.stopped,reac_2_image.started,reac_2_image.stopped,reac_2_sound.started,reac_2_sound.stopped,reac_2_keys.keys,reac_2_keys.corr,reac_2_keys.rt,reac_2_keys.started,reac_2_keys.stopped,blank_1second.started,blank_1second.stopped,participant,session,date,expName,psychopyVersion,frameRate,
,,,,,,,,11.758777679589912,None,space,26.406472826023673,11.758777679589912,None,,,,,,,,,,,,,,,,,,,,,,,,,,,,,,,,717,002,2019_May_06_1149,MAER M R1 P2 v1,3.1.0,59.80035576939468,
,,,,,,,,,,,,,,38.18064353875707,None,space,2.1692362285248237,41.18373386368148,None,,,,,,,,,,,,,,,,,,,,,,,,,,717,002,2019_May_06_1149,MAER M R1 P2 v1,3.1.0,59.80035576939468,
,,,,,,,,,,,,,,,,,,,,43.36905600714272,None,space,0.9015311606017349,46.37216916772013,None,,,,,,,,,,,,,,,,,,,,717,002,2019_May_06_1149,MAER M R1 P2 v1,3.1.0,59.80035576939468,
,,,,,,,,,,,,,,,,,,,,,,,,,,47.289714431140965,None,space,0.9848016708492651,52.29478725133413,None,,,,,,,,,,,,,,717,002,2019_May_06_1149,MAER M R1 P2 v1,3.1.0,59.80035576939468,
images/7040.jpg,Neutral,sounds/high 4 second.wav,num_2,0,0,0,3,,,,,,,,,,,,,,,,,,,,,,,,,53.29578060225322,None,58.35492374243768,None,58.35492374243768,None,num_2,1,4.867751520449019,58.35492374243768,None,64.30646047674236,None,717,002,2019_May_06_1149,MAER M R1 P2 v1,3.1.0,59.80035576939468,
images/2840.jpg,Neutral,sounds/low 1 second.wav,num_1,0,1,1,4,,,,,,,,,,,,,,,,,,,,,,,,,,,65.33483828300996,None,65.33483828300996,None,num_1,1,1.8082514229463413,65.33483828300996,None,71.29699329563118,None,717,002,2019_May_06_1149,MAER M R1 P2 v1,3.1.0,59.80035576939468,
images/9001.jpg,Unpleasant,sounds/low 1 second.wav,num_1,0,2,2,34,,,,,,,,,,,,,,,,,,,,,,,,,,,72.31826350480878,None,72.31826350480878,None,num_1,1,1.882583577740661,72.31826350480878,None,78.2874377766002,None,717,002,2019_May_06_1149,MAER M R1 P2 v1,3.1.0,59.80035576939468,
images/9342.jpg,Unpleasant,sounds/high 1 second.wav,num_2,0,3,3,35,,,,,,,,,,,,,,,,,,,,,,,,,,,79.33372023740594,None,79.33372023740594,None,num_2,1,1.856717392865903,79.33372023740594,None,85.27793033262788,None,717,002,2019_May_06_1149,MAER M R1 P2 v1,3.1.0,59.80035576939468,
images/2456.jpg,Unpleasant,sounds/high 1 second.wav,num_2,0,4,4,31,,,,,,,,,,,,,,,,,,,,,,,,,,,86.32366473775437,None,86.32366473775437,None,num_2,1,1.7739955392353295,86.32366473775437,None,92.26806533039962,None,717,002,2019_May_06_1149,MAER M R1 P2 v1,3.1.0,59.80035576939468,
images/9265.jpg,Unpleasant,sounds/low 4 second.wav,num_1,0,5,5,32,,,,,,,,,,,,,,,,,,,,,,,,,,,93.29342822949366,None,93.29342822949366,None,num_1,1,4.864384463462557,93.29342822949366,None,99.25834094772108,None,717,002,2019_May_06_1149,MAER M R1 P2 v1,3.1.0,59.80035576939468,
images/2850.jpg,Neutral,sounds/high 4 second.wav,num_2,0,6,6,15,,,,,,,,,,,,,,,,,,,,,,,,,,,100.27725547897899,None,100.27725547897899,None,num_2,1,4.954222627788113,100.27725547897899,None,106.2486817668414,None,717,002,2019_May_06_1149,MAER M R1 P2 v1,3.1.0,59.80035576939468,
images/7950.jpg,Neutral,sounds/low 4 second.wav,num_1,0,7,7,6,,,,,,,,,,,,,,,,,,,,,,,,,,,107.26767712429319,None,107.26767712429319,None,num_1,1,4.937383737229538,107.26767712429319,None,113.2390249897162,None,717,002,2019_May_06_1149,MAER M R1 P2 v1,3.1.0,59.80035576939468,
images/7006.jpg,Neutral,sounds/high 1 second.wav,num_2,0,8,8,13,,,,,,,,,,,,,,,,,,,,,,,,,,,114.27740120650378,None,114.27740120650378,None,num_2,1,1.9984291474265774,114.27740120650378,None,120.22916419405556,None,717,002,2019_May_06_1149,MAER M R1 P2 v1,3.1.0,59.80035576939468,
images/7036.jpg,Neutral,sounds/high 4 second.wav,num_2,0,9,9,19,,,,,,,,,,,,,,,,,,,,,,,,,,,121.26720328448755,None,121.26720328448755,None,num_2,1,4.918460792836413,121.26720328448755,None,127.23598484313516,None,717,002,2019_May_06_1149,MAER M R1 P2 v1,3.1.0,59.80035576939468,
images/5510.jpg,Neutral,sounds/high 1 second.wav,num_2,0,10,10,9,,,,,,,,,,,,,,,,,,,,,,,,,,,128.2708131205236,None,128.2708131205236,None,num_2,1,1.8517906006654812,128.2708131205236,None,134.24305277830172,None,717,002,2019_May_06_1149,MAER M R1 P2 v1,3.1.0,59.80035576939468,
images/9102.jpg,Unpleasant,sounds/high 1 second.wav,num_2,0,11,11,39,,,,,,,,,,,,,,,,,,,,,,,,,,,135.27849461363985,None,135.27849461363985,None,num_2,1,2.1182457170380076,135.27849461363985,None,141.23317996387777,None,717,002,2019_May_06_1149,MAER M R1 P2 v1,3.1.0,59.80035576939468,
images/1910.jpg,Pleasant,sounds/high 1 second.wav,num_2,0,12,12,25,,,,,,,,,,,,,,,,,,,,,,,,,,,142.27395692895334,None,142.27395692895334,None,num_2,1,1.84676615600074,142.27395692895334,None,148.24041405846947,None,717,002,2019_May_06_1149,MAER M R1 P2 v1,3.1.0,59.80035576939468,
images/9210.jpg,Neutral,sounds/low 1 second.wav,num_1,0,13,13,16,,,,,,,,,,,,,,,,,,,,,,,,,,,149.25975225118964,None,149.25975225118964,None,num_1,1,1.784409799018249,149.25975225118964,None,155.24761179629604,None,717,002,2019_May_06_1149,MAER M R1 P2 v1,3.1.0,59.80035576939468,
images/7481.jpg,Pleasant,sounds/low 4 second.wav,num_1,0,14,14,22,,,,,,,,,,,,,,,,,,,,,,,,,,,156.29034511582904,None,156.29034511582904,None,num_1,1,4.863556070093182,156.29034511582904,None,162.23775220251264,None,717,002,2019_May_06_1149,MAER M R1 P2 v1,3.1.0,59.80035576939468,
images/2339.jpg,Pleasant,sounds/high 4 second.wav,num_2,0,15,15,27,,,,,,,,,,,,,,,,,,,,,,,,,,,163.2687110385432,None,163.2687110385432,None,num_2,1,5.009082280163057,163.2687110385432,None,169.22826368809547,None,717,002,2019_May_06_1149,MAER M R1 P2 v1,3.1.0,59.80035576939468,
images/1590.jpg,Pleasant,sounds/low 1 second.wav,num_1,0,16,16,24,,,,,,,,,,,,,,,,,,,,,,,,,,,170.2515187962963,None,170.2515187962963,None,num_1,1,1.8631239954938792,170.2515187962963,None,176.23505098510213,None,717,002,2019_May_06_1149,MAER M R1 P2 v1,3.1.0,59.80035576939468,
images/2900.jpg,Unpleasant,sounds/low 1 second.wav,num_1,0,17,17,38,,,,,,,,,,,,,,,,,,,,,,,,,,,177.25365843691725,None,177.25365843691725,None,num_1,1,2.235530834292149,177.25365843691725,None,183.22520431149132,None,717,002,2019_May_06_1149,MAER M R1 P2 v1,3.1.0,59.80035576939468,
images/7090.jpg,Neutral,sounds/low 4 second.wav,num_1,0,18,18,2,,,,,,,,,,,,,,,,,,,,,,,,,,,184.26167284981966,None,184.26167284981966,None,num_1,1,4.820940534456895,184.26167284981966,None,190.21571880176452,None,717,002,2019_May_06_1149,MAER M R1 P2 v1,3.1.0,59.80035576939468,
images/2357.jpg,Neutral,sounds/high 1 second.wav,num_2,0,19,19,1,,,,,,,,,,,,,,,,,,,,,,,,,,,191.24930764402416,None,191.24930764402416,None,num_2,1,1.919758819445633,191.24930764402416,None,197.2062149634221,None,717,002,2019_May_06_1149,MAER M R1 P2 v1,3.1.0,59.80035576939468,
images/2890.jpg,Neutral,sounds/high 1 second.wav,num_2,0,20,20,5,,,,,,,,,,,,,,,,,,,,,,,,,,,198.23081797610575,None,198.23081797610575,None,num_2,1,1.9285878041373508,198.23081797610575,None,204.19612851545025,None,717,002,2019_May_06_1149,MAER M R1 P2 v1,3.1.0,59.80035576939468,
images/9330.jpg,Unpleasant,sounds/high 4 second.wav,num_2,0,21,21,33,,,,,,,,,,,,,,,,,,,,,,,,,,,205.23029395795675,None,205.23029395795675,None,num_2,1,4.906286384932173,205.23029395795675,None,211.20311742723788,None,717,002,2019_May_06_1149,MAER M R1 P2 v1,3.1.0,59.80035576939468,
images/6220.jpg,Unpleasant,sounds/high 4 second.wav,num_2,0,22,22,37,,,,,,,,,,,,,,,,,,,,,,,,,,,212.22660569947766,None,212.22660569947766,None,num_2,1,4.816743281286108,212.22660569947766,None,218.19368630242388,None,717,002,2019_May_06_1149,MAER M R1 P2 v1,3.1.0,59.80035576939468,
images/8162.jpg,Pleasant,sounds/high 4 second.wav,num_2,0,23,23,23,,,,,,,,,,,,,,,,,,,,,,,,,,,219.22699270370686,None,219.22699270370686,None,num_2,1,4.906605182672138,219.22699270370686,None,225.18406407924704,None,717,002,2019_May_06_1149,MAER M R1 P2 v1,3.1.0,59.80035576939468,
images/7130.jpg,Neutral,sounds/low 1 second.wav,num_1,0,24,24,8,,,,,,,,,,,,,,,,,,,,,,,,,,,226.22011135986577,None,226.22011135986577,None,num_1,1,1.9011035930398066,226.22011135986577,None,232.17410442924484,None,717,002,2019_May_06_1149,MAER M R1 P2 v1,3.1.0,59.80035576939468,
images/2441.jpg,Neutral,sounds/low 1 second.wav,num_1,0,25,25,12,,,,,,,,,,,,,,,,,,,,,,,,,,,233.19892468110447,None,233.19892468110447,None,num_1,1,1.9121043685499899,233.19892468110447,None,239.16452006517648,None,717,002,2019_May_06_1149,MAER M R1 P2 v1,3.1.0,59.80035576939468,
images/2722.jpg,Unpleasant,sounds/low 1 second.wav,num_1,0,26,26,30,,,,,,,,,,,,,,,,,,,,,,,,,,,240.18990579992533,None,240.18990579992533,None,num_1,1,1.878060315571929,240.18990579992533,None,246.1550730154977,None,717,002,2019_May_06_1149,MAER M R1 P2 v1,3.1.0,59.80035576939468,
images/5594.jpg,Pleasant,sounds/high 1 second.wav,num_2,0,27,27,29,,,,,,,,,,,,,,,,,,,,,,,,,,,247.17400857959547,None,247.17400857959547,None,num_2,1,1.8341641805363906,247.17400857959547,None,253.14514641710048,None,717,002,2019_May_06_1149,MAER M R1 P2 v1,3.1.0,59.80035576939468,
images/1419.jpg,Pleasant,sounds/low 4 second.wav,num_1,0,28,28,26,,,,,,,,,,,,,,,,,,,,,,,,,,,254.18347005179203,None,254.18347005179203,None,num_1,1,5.151981188229911,254.18347005179203,None,260.13563897312815,None,717,002,2019_May_06_1149,MAER M R1 P2 v1,3.1.0,59.80035576939468,
images/2387.jpg,Pleasant,sounds/low 1 second.wav,num_1,0,29,29,20,,,,,,,,,,,,,,,,,,,,,,,,,,,261.17006642470733,None,261.17006642470733,None,num_1,1,2.102164008667387,261.17006642470733,None,267.14238119976653,None,717,002,2019_May_06_1149,MAER M R1 P2 v1,3.1.0,59.80035576939468,
images/7010.jpg,Neutral,sounds/low 1 second.wav,num_1,0,30,30,0,,,,,,,,,,,,,,,,,,,,,,,,,,,268.17680053868025,None,268.17680053868025,None,num_1,1,1.7692919955934485,268.17680053868025,None,274.13261775610226,None,717,002,2019_May_06_1149,MAER M R1 P2 v1,3.1.0,59.80035576939468,
images/7217.jpg,Neutral,sounds/low 4 second.wav,num_1,0,31,31,14,,,,,,,,,,,,,,,,,,,,,,,,,,,275.1658772842038,None,275.1658772842038,None,num_1,1,5.22390117690702,275.1658772842038,None,281.12310249993243,None,717,002,2019_May_06_1149,MAER M R1 P2 v1,3.1.0,59.80035576939468,
images/7009.jpg,Neutral,sounds/high 1 second.wav,num_2,0,32,32,17,,,,,,,,,,,,,,,,,,,,,,,,,,,282.1473326304349,None,282.1473326304349,None,num_2,1,2.2128976971744123,282.1473326304349,None,288.11333484970055,None,717,002,2019_May_06_1149,MAER M R1 P2 v1,3.1.0,59.80035576939468,
images/2540.jpg,Pleasant,sounds/low 1 second.wav,num_1,0,33,33,28,,,,,,,,,,,,,,,,,,,,,,,,,,,289.15496064004583,None,289.15496064004583,None,num_1,1,2.112160616370602,289.15496064004583,None,295.1038231991606,None,717,002,2019_May_06_1149,MAER M R1 P2 v1,3.1.0,59.80035576939468,
images/7004.jpg,Neutral,sounds/high 4 second.wav,num_2,0,34,34,11,,,,,,,,,,,,,,,,,,,,,,,,,,,296.1465481055566,None,296.1465481055566,None,num_2,1,5.063834665061222,296.1465481055566,None,302.0940726756671,None,717,002,2019_May_06_1149,MAER M R1 P2 v1,3.1.0,59.80035576939468,
images/2057.jpg,Pleasant,sounds/high 1 second.wav,num_2,0,35,35,21,,,,,,,,,,,,,,,,,,,,,,,,,,,303.11137699289793,None,303.11137699289793,None,num_2,1,2.103057603835623,303.11137699289793,None,309.0842395231666,None,717,002,2019_May_06_1149,MAER M R1 P2 v1,3.1.0,59.80035576939468,
images/7030.jpg,Neutral,sounds/low 4 second.wav,num_1,0,36,36,10,,,,,,,,,,,,,,,,,,,,,,,,,,,310.1235267623342,None,310.1235267623342,None,num_1,1,5.284340841355515,310.1235267623342,None,316.09138047233137,None,717,002,2019_May_06_1149,MAER M R1 P2 v1,3.1.0,59.80035576939468,
images/2590.jpg,Unpleasant,sounds/low 4 second.wav,num_1,0,37,37,36,,,,,,,,,,,,,,,,,,,,,,,,,,,317.1290773284327,None,317.1290773284327,None,num_1,1,5.102829247303816,317.1290773284327,None,323.0815890850372,None,717,002,2019_May_06_1149,MAER M R1 P2 v1,3.1.0,59.80035576939468,
images/7161.jpg,Neutral,sounds/low 4 second.wav,num_1,0,38,38,18,,,,,,,,,,,,,,,,,,,,,,,,,,,324.10141223492246,None,324.10141223492246,None,num_1,1,4.820102826543007,324.10141223492246,None,330.0718893408266,None,717,002,2019_May_06_1149,MAER M R1 P2 v1,3.1.0,59.80035576939468,
images/7052.jpg,Neutral,sounds/high 4 second.wav,num_2,0,39,39,7,,,,,,,,,,,,,,,,,,,,,,,,,,,331.10909102381447,None,331.10909102381447,None,num_2,1,5.01949323478766,331.10909102381447,None,337.0620676061535,None,717,002,2019_May_06_1149,MAER M R1 P2 v1,3.1.0,59.80035576939468,
