PracticeImage,ImageCategory,SoundFile,CorrectAns,ReactivityImage1,PictureRatings_1,prac_reac_loop.thisRepN,prac_reac_loop.thisTrialN,prac_reac_loop.thisN,prac_reac_loop.thisIndex,reac_1_loop.thisRepN,reac_1_loop.thisTrialN,reac_1_loop.thisN,reac_1_loop.thisIndex,prt_1_loop.thisRepN,prt_1_loop.thisTrialN,prt_1_loop.thisN,prt_1_loop.thisIndex,slide1_headphones.started,slide1_headphones.stopped,slide1_headphones_resp.keys,slide1_headphones_resp.rt,slide1_headphones_resp.started,slide1_headphones_resp.stopped,reac_info_1.started,reac_info_1.stopped,reac_info_1_resp.keys,reac_info_1_resp.rt,reac_info_1_resp.started,reac_info_1_resp.stopped,reac_info_2.started,reac_info_2.stopped,reac_info_2_resp.keys,reac_info_2_resp.rt,reac_info_2_resp.started,reac_info_2_resp.stopped,reac_info_3.started,reac_info_3.stopped,reac_info_3_resp.keys,reac_info_3_resp.rt,reac_info_3_resp.started,reac_info_3_resp.stopped,blank_5seconds.started,blank_5seconds.stopped,practice_reac_image.started,practice_reac_image.stopped,practice_reac_sound.started,practice_reac_sound.stopped,practice_reac_keys.keys,practice_reac_keys.corr,practice_reac_keys.started,practice_reac_keys.stopped,blank_1second.started,blank_1second.stopped,practice_reac_keys.rt,post_prac_reac_text.started,post_prac_reac_text.stopped,post_prac_reac_resp.keys,post_prac_reac_resp.rt,post_prac_reac_resp.started,post_prac_reac_resp.stopped,reac_1_image.started,reac_1_image.stopped,reac_1_sound.started,reac_1_sound.stopped,reac_1_keys.keys,reac_1_keys.corr,reac_1_keys.rt,reac_1_keys.started,reac_1_keys.stopped,blank2_1second.started,blank2_1second.stopped,postreac1_slide1_text.started,postreac1_slide1_text.stopped,postreac1_slide1_resp.keys,postreac1_slide1_resp.rt,postreac1_slide1_resp.started,postreac1_slide1_resp.stopped,postreac1_slide2_text.started,postreac1_slide2_text.stopped,postreac1_slide2_resp.keys,postreac1_slide2_resp.rt,postreac1_slide2_resp.started,postreac1_slide2_resp.stopped,postreac1_slide3_text.started,postreac1_slide3_text.stopped,postreac1_slide3_resp.keys,postreac1_slide3_resp.rt,postreac1_slide3_resp.started,postreac1_slide3_resp.stopped,prt_1_image.started,prt_1_image.stopped,prt_1_image_intensity.started,prt_1_image_intensity.stopped,prt_1_image_intensity_resp.keys,prt_1_image_intensity_resp.rt,prt_1_image_intensity_resp.started,prt_1_image_intensity_resp.stopped,prt_1_image_intensity_text.started,prt_1_image_intensity_text.stopped,prt_1_vas.response,prt_1_vas.rt,prt_1_vas.started,prt_1_vas.stopped,prt_1_vas_guide.started,prt_1_vas_guide.stopped,prt_1_vas_instructions.started,prt_1_vas_instructions.stopped,blank_10seconds.started,blank_10seconds.stopped,pre_m_text.started,pre_m_text.stopped,pre_m_resp.keys,pre_m_resp.rt,pre_m_resp.started,pre_m_resp.stopped,m_audio_file.started,m_audio_file.stopped,m_inprogress_text.started,m_inprogress_text.stopped,pleasewait_text.started,pleasewait_text.stopped,pleasewait_resp.keys,pleasewait_resp.rt,pleasewait_resp.started,pleasewait_resp.stopped,participant,session,date,expName,psychopyVersion,frameRate,
,,,,,,,,,,,,,,,,,,9.522336293757917,None,space,14.283915633001925,9.522336293757917,None,,,,,,,,,,,,,,,,,,,,,,,,,,,,,,,,,,,,,,,,,,,,,,,,,,,,,,,,,,,,,,,,,,,,,,,,,,,,,,,,,,,,,,,,,,,,,,,,,,,,,,,703,001,2019_May_02_0937,MAER M R1 P1 v1,3.1.0,59.8985650445283,
,,,,,,,,,,,,,,,,,,,,,,,,23.822187020563433,None,space,19.887213104311513,26.825113291984735,None,,,,,,,,,,,,,,,,,,,,,,,,,,,,,,,,,,,,,,,,,,,,,,,,,,,,,,,,,,,,,,,,,,,,,,,,,,,,,,,,,,,,,,,,,,,,,,,,,703,001,2019_May_02_0937,MAER M R1 P1 v1,3.1.0,59.8985650445283,
,,,,,,,,,,,,,,,,,,,,,,,,,,,,,,46.728334504162376,None,space,25.009261668578574,49.73123253146059,None,,,,,,,,,,,,,,,,,,,,,,,,,,,,,,,,,,,,,,,,,,,,,,,,,,,,,,,,,,,,,,,,,,,,,,,,,,,,,,,,,,,,,,,,,,,703,001,2019_May_02_0937,MAER M R1 P1 v1,3.1.0,59.8985650445283,
,,,,,,,,,,,,,,,,,,,,,,,,,,,,,,,,,,,,74.75643950980202,None,space,10.160631839059079,79.76144052238396,None,,,,,,,,,,,,,,,,,,,,,,,,,,,,,,,,,,,,,,,,,,,,,,,,,,,,,,,,,,,,,,,,,,,,,,,,,,,,,,,,,,,,,703,001,2019_May_02_0937,MAER M R1 P1 v1,3.1.0,59.8985650445283,
images/7042.jpg,Neutral,sounds/low 4 second.wav,num_1,,,0,0,0,1,,,,,,,,,,,,,,,,,,,,,,,,,,,,,,,,,89.93817391529024,None,95.00156544553897,None,95.00156544553897,None,None,0,95.00156544553897,None,100.94913353641027,None,,,,,,,,,,,,,,,,,,,,,,,,,,,,,,,,,,,,,,,,,,,,,,,,,,,,,,,,,,,,,,,,,,,,,,,,,703,001,2019_May_02_0937,MAER M R1 P1 v1,3.1.0,59.8985650445283,
images/7059.jpg,Neutral,sounds/high 4 second.wav,num_2,,,0,1,1,3,,,,,,,,,,,,,,,,,,,,,,,,,,,,,,,,,,,101.97058164264195,None,101.97058164264195,None,"['num_2', 'num_1']",0,101.97058164264195,None,107.93950319188639,None,"[0.23127790233911583, 5.035538618429655]",,,,,,,,,,,,,,,,,,,,,,,,,,,,,,,,,,,,,,,,,,,,,,,,,,,,,,,,,,,,,,,,,,,,,,,,703,001,2019_May_02_0937,MAER M R1 P1 v1,3.1.0,59.8985650445283,
images/7053.jpg,Neutral,sounds/high 1 second.wav,num_2,,,0,2,2,2,,,,,,,,,,,,,,,,,,,,,,,,,,,,,,,,,,,108.96700064841275,None,108.96700064841275,None,['num_1'],0,108.96700064841275,None,114.9297679835438,None,[2.226412401453217],,,,,,,,,,,,,,,,,,,,,,,,,,,,,,,,,,,,,,,,,,,,,,,,,,,,,,,,,,,,,,,,,,,,,,,,703,001,2019_May_02_0937,MAER M R1 P1 v1,3.1.0,59.8985650445283,
images/7041.jpg,Neutral,sounds/low 1 second.wav,num_1,,,0,3,3,0,,,,,,,,,,,,,,,,,,,,,,,,,,,,,,,,,,,115.9697361217693,None,115.9697361217693,None,['num_2'],0,115.9697361217693,None,121.9368575588785,None,[2.1139061441786],,,,,,,,,,,,,,,,,,,,,,,,,,,,,,,,,,,,,,,,,,,,,,,,,,,,,,,,,,,,,,,,,,,,,,,,703,001,2019_May_02_0937,MAER M R1 P1 v1,3.1.0,59.8985650445283,
,,,,,,,,,,,,,,,,,,,,,,,,,,,,,,,,,,,,,,,,,,,,,,,,,,,,,,,122.95386142231405,None,space,57.357925451139636,125.97413108758496,None,,,,,,,,,,,,,,,,,,,,,,,,,,,,,,,,,,,,,,,,,,,,,,,,,,,,,,,,,,,,,,,,,,703,001,2019_May_02_0937,MAER M R1 P1 v1,3.1.0,59.8985650445283,
,Pleasant,sounds/low 1 second.wav,num_1,images/1605.jpg,,,,,,0,0,0,20,,,,,,,,,,,,,,,,,,,,,,,,,,,,,183.3482151817568,None,,,,,,,,,,,,,,,,,,188.39237907459005,None,188.39237907459005,None,num_1,1,2.3808422517658983,188.39237907459005,None,194.35916158222358,None,,,,,,,,,,,,,,,,,,,,,,,,,,,,,,,,,,,,,,,,,,,,,,,,,,,,,,,703,001,2019_May_02_0937,MAER M R1 P1 v1,3.1.0,59.8985650445283,
,Pleasant,sounds/high 1 second.wav,num_2,images/2360.jpg,,,,,,0,1,1,21,,,,,,,,,,,,,,,,,,,,,,,,,,,,,,,,,,,,,,,,,,,,,,,,195.39615387157824,None,195.39615387157824,None,num_2,1,2.1502205745814535,195.39615387157824,None,201.3496613409468,None,,,,,,,,,,,,,,,,,,,,,,,,,,,,,,,,,,,,,,,,,,,,,,,,,,,,,,,703,001,2019_May_02_0937,MAER M R1 P1 v1,3.1.0,59.8985650445283,
,Pleasant,sounds/high 4 second.wav,num_2,images/2311.jpg,,,,,,0,2,2,27,,,,,,,,,,,,,,,,,,,,,,,,,,,,,,,,,,,,,,,,,,,,,,,,202.38514106737534,None,202.38514106737534,None,num_2,1,5.337830058116651,202.38514106737534,None,208.3396587148443,None,,,,,,,,,,,,,,,,,,,,,,,,,,,,,,,,,,,,,,,,,,,,,,,,,,,,,,,703,001,2019_May_02_0937,MAER M R1 P1 v1,3.1.0,59.8985650445283,
,Unpleasant,sounds/high 1 second.wav,num_2,images/9280.jpg,,,,,,0,3,3,31,,,,,,,,,,,,,,,,,,,,,,,,,,,,,,,,,,,,,,,,,,,,,,,,209.3764481873584,None,209.3764481873584,None,num_2,1,2.0170044643741676,209.3764481873584,None,215.32987332811285,None,,,,,,,,,,,,,,,,,,,,,,,,,,,,,,,,,,,,,,,,,,,,,,,,,,,,,,,703,001,2019_May_02_0937,MAER M R1 P1 v1,3.1.0,59.8985650445283,
,Pleasant,sounds/high 1 second.wav,num_2,images/1900.jpg,,,,,,0,4,4,29,,,,,,,,,,,,,,,,,,,,,,,,,,,,,,,,,,,,,,,,,,,,,,,,216.364535176853,None,216.364535176853,None,num_2,1,2.319435922798675,216.364535176853,None,222.32056448583967,None,,,,,,,,,,,,,,,,,,,,,,,,,,,,,,,,,,,,,,,,,,,,,,,,,,,,,,,703,001,2019_May_02_0937,MAER M R1 P1 v1,3.1.0,59.8985650445283,
,Neutral,sounds/low 4 second.wav,num_1,images/7038.jpg,,,,,,0,5,5,6,,,,,,,,,,,,,,,,,,,,,,,,,,,,,,,,,,,,,,,,,,,,,,,,223.35785724458742,None,223.35785724458742,None,num_1,1,5.1533806111906415,223.35785724458742,None,229.31063036675891,None,,,,,,,,,,,,,,,,,,,,,,,,,,,,,,,,,,,,,,,,,,,,,,,,,,,,,,,703,001,2019_May_02_0937,MAER M R1 P1 v1,3.1.0,59.8985650445283,
,Unpleasant,sounds/high 1 second.wav,num_2,images/9561.jpg,,,,,,0,6,6,39,,,,,,,,,,,,,,,,,,,,,,,,,,,,,,,,,,,,,,,,,,,,,,,,230.34532767088717,None,230.34532767088717,None,num_2,1,2.3193839415935145,230.34532767088717,None,236.30103487668407,None,,,,,,,,,,,,,,,,,,,,,,,,,,,,,,,,,,,,,,,,,,,,,,,,,,,,,,,703,001,2019_May_02_0937,MAER M R1 P1 v1,3.1.0,59.8985650445283,
,Pleasant,sounds/high 1 second.wav,num_2,images/2391.jpg,,,,,,0,7,7,25,,,,,,,,,,,,,,,,,,,,,,,,,,,,,,,,,,,,,,,,,,,,,,,,237.33518983355793,None,237.33518983355793,None,num_2,1,2.2698987358048726,237.33518983355793,None,243.30798202952633,None,,,,,,,,,,,,,,,,,,,,,,,,,,,,,,,,,,,,,,,,,,,,,,,,,,,,,,,703,001,2019_May_02_0937,MAER M R1 P1 v1,3.1.0,59.8985650445283,
,Neutral,sounds/low 1 second.wav,num_1,images/7080.jpg,,,,,,0,8,8,16,,,,,,,,,,,,,,,,,,,,,,,,,,,,,,,,,,,,,,,,,,,,,,,,244.34559568958616,None,244.34559568958616,None,num_1,1,2.3166042992361326,244.34559568958616,None,250.29829820145028,None,,,,,,,,,,,,,,,,,,,,,,,,,,,,,,,,,,,,,,,,,,,,,,,,,,,,,,,703,001,2019_May_02_0937,MAER M R1 P1 v1,3.1.0,59.8985650445283,
,Unpleasant,sounds/low 4 second.wav,num_1,images/2278.jpg,,,,,,0,9,9,32,,,,,,,,,,,,,,,,,,,,,,,,,,,,,,,,,,,,,,,,,,,,,,,,251.33590675353048,None,251.33590675353048,None,num_1,1,5.3528703540669085,251.33590675353048,None,257.28866635457894,None,,,,,,,,,,,,,,,,,,,,,,,,,,,,,,,,,,,,,,,,,,,,,,,,,,,,,,,703,001,2019_May_02_0937,MAER M R1 P1 v1,3.1.0,59.8985650445283,
,Neutral,sounds/high 4 second.wav,num_2,images/2190.jpg,,,,,,0,10,10,11,,,,,,,,,,,,,,,,,,,,,,,,,,,,,,,,,,,,,,,,,,,,,,,,258.3288559387472,None,258.3288559387472,None,num_2,1,5.0164407837924045,258.3288559387472,None,264.2789332495224,None,,,,,,,,,,,,,,,,,,,,,,,,,,,,,,,,,,,,,,,,,,,,,,,,,,,,,,,703,001,2019_May_02_0937,MAER M R1 P1 v1,3.1.0,59.8985650445283,
,Neutral,sounds/high 1 second.wav,num_2,images/7235.jpg,,,,,,0,11,11,9,,,,,,,,,,,,,,,,,,,,,,,,,,,,,,,,,,,,,,,,,,,,,,,,265.31404430000543,None,265.31404430000543,None,num_2,1,2.3688907811779245,265.31404430000543,None,271.26937922422417,None,,,,,,,,,,,,,,,,,,,,,,,,,,,,,,,,,,,,,,,,,,,,,,,,,,,,,,,703,001,2019_May_02_0937,MAER M R1 P1 v1,3.1.0,59.8985650445283,
,Unpleasant,sounds/high 4 second.wav,num_2,images/9008.jpg,,,,,,0,12,12,37,,,,,,,,,,,,,,,,,,,,,,,,,,,,,,,,,,,,,,,,,,,,,,,,272.306975457059,None,272.306975457059,None,num_2,1,4.9195135640898116,272.306975457059,None,278.2596307952283,None,,,,,,,,,,,,,,,,,,,,,,,,,,,,,,,,,,,,,,,,,,,,,,,,,,,,,,,703,001,2019_May_02_0937,MAER M R1 P1 v1,3.1.0,59.8985650445283,
,Neutral,sounds/high 1 second.wav,num_2,images/2570.jpg,,,,,,0,13,13,5,,,,,,,,,,,,,,,,,,,,,,,,,,,,,,,,,,,,,,,,,,,,,,,,279.27459387054455,None,279.27459387054455,None,num_2,1,2.0221938712656993,279.27459387054455,None,285.24997971831567,None,,,,,,,,,,,,,,,,,,,,,,,,,,,,,,,,,,,,,,,,,,,,,,,,,,,,,,,703,001,2019_May_02_0937,MAER M R1 P1 v1,3.1.0,59.8985650445283,
,Unpleasant,sounds/low 1 second.wav,num_1,images/9041.jpg,,,,,,0,14,14,38,,,,,,,,,,,,,,,,,,,,,,,,,,,,,,,,,,,,,,,,,,,,,,,,286.28411995218926,None,286.28411995218926,None,num_1,1,2.169590334019631,286.28411995218926,None,292.2402309888505,None,,,,,,,,,,,,,,,,,,,,,,,,,,,,,,,,,,,,,,,,,,,,,,,,,,,,,,,703,001,2019_May_02_0937,MAER M R1 P1 v1,3.1.0,59.8985650445283,
,Neutral,sounds/high 1 second.wav,num_2,images/5510.jpg,,,,,,0,15,15,13,,,,,,,,,,,,,,,,,,,,,,,,,,,,,,,,,,,,,,,,,,,,,,,,293.27436461239745,None,293.27436461239745,None,num_2,1,2.4033582262209165,293.27436461239745,None,299.2472259163262,None,,,,,,,,,,,,,,,,,,,,,,,,,,,,,,,,,,,,,,,,,,,,,,,,,,,,,,,703,001,2019_May_02_0937,MAER M R1 P1 v1,3.1.0,59.8985650445283,
,Unpleasant,sounds/low 4 second.wav,num_1,images/2750.jpg,,,,,,0,16,16,36,,,,,,,,,,,,,,,,,,,,,,,,,,,,,,,,,,,,,,,,,,,,,,,,300.2829243844733,None,300.2829243844733,None,num_1,1,5.254805557241525,300.2829243844733,None,306.23755651078113,None,,,,,,,,,,,,,,,,,,,,,,,,,,,,,,,,,,,,,,,,,,,,,,,,,,,,,,,703,001,2019_May_02_0937,MAER M R1 P1 v1,3.1.0,59.8985650445283,
,Neutral,sounds/low 1 second.wav,num_1,images/2512.jpg,,,,,,0,17,17,4,,,,,,,,,,,,,,,,,,,,,,,,,,,,,,,,,,,,,,,,,,,,,,,,307.2738231665505,None,307.2738231665505,None,num_1,1,2.1510477668211934,307.2738231665505,None,313.2280262225647,None,,,,,,,,,,,,,,,,,,,,,,,,,,,,,,,,,,,,,,,,,,,,,,,,,,,,,,,703,001,2019_May_02_0937,MAER M R1 P1 v1,3.1.0,59.8985650445283,
,Neutral,sounds/high 1 second.wav,num_2,images/5533.jpg,,,,,,0,18,18,1,,,,,,,,,,,,,,,,,,,,,,,,,,,,,,,,,,,,,,,,,,,,,,,,314.2628166722054,None,314.2628166722054,None,num_2,1,2.002060619099211,314.2628166722054,None,320.2181555025261,None,,,,,,,,,,,,,,,,,,,,,,,,,,,,,,,,,,,,,,,,,,,,,,,,,,,,,,,703,001,2019_May_02_0937,MAER M R1 P1 v1,3.1.0,59.8985650445283,
,Neutral,sounds/low 4 second.wav,num_1,images/7175.jpg,,,,,,0,19,19,10,,,,,,,,,,,,,,,,,,,,,,,,,,,,,,,,,,,,,,,,,,,,,,,,321.2528777456139,None,321.2528777456139,None,num_2,0,5.13887274700528,321.2528777456139,None,327.2084040688362,None,,,,,,,,,,,,,,,,,,,,,,,,,,,,,,,,,,,,,,,,,,,,,,,,,,,,,,,703,001,2019_May_02_0937,MAER M R1 P1 v1,3.1.0,59.8985650445283,
,Neutral,sounds/high 4 second.wav,num_2,images/7045.jpg,,,,,,0,20,20,15,,,,,,,,,,,,,,,,,,,,,,,,,,,,,,,,,,,,,,,,,,,,,,,,328.2434357953996,None,328.2434357953996,None,num_2,1,4.921836192499995,328.2434357953996,None,334.19881368674146,None,,,,,,,,,,,,,,,,,,,,,,,,,,,,,,,,,,,,,,,,,,,,,,,,,,,,,,,703,001,2019_May_02_0937,MAER M R1 P1 v1,3.1.0,59.8985650445283,
,Unpleasant,sounds/low 1 second.wav,num_1,images/6311.jpg,,,,,,0,21,21,30,,,,,,,,,,,,,,,,,,,,,,,,,,,,,,,,,,,,,,,,,,,,,,,,335.23355666221755,None,335.23355666221755,None,num_1,1,2.0188820976127317,335.23355666221755,None,341.18926356754514,None,,,,,,,,,,,,,,,,,,,,,,,,,,,,,,,,,,,,,,,,,,,,,,,,,,,,,,,703,001,2019_May_02_0937,MAER M R1 P1 v1,3.1.0,59.8985650445283,
,Neutral,sounds/low 4 second.wav,num_1,images/2499.jpg,,,,,,0,22,22,18,,,,,,,,,,,,,,,,,,,,,,,,,,,,,,,,,,,,,,,,,,,,,,,,342.2251095661643,None,342.2251095661643,None,num_1,1,5.237588060067537,342.2251095661643,None,348.17924711985074,None,,,,,,,,,,,,,,,,,,,,,,,,,,,,,,,,,,,,,,,,,,,,,,,,,,,,,,,703,001,2019_May_02_0937,MAER M R1 P1 v1,3.1.0,59.8985650445283,
,Unpleasant,sounds/high 4 second.wav,num_2,images/2490.jpg,,,,,,0,23,23,33,,,,,,,,,,,,,,,,,,,,,,,,,,,,,,,,,,,,,,,,,,,,,,,,349.22054062857,None,349.22054062857,None,num_2,1,5.032285436308939,349.22054062857,None,355.1698844935556,None,,,,,,,,,,,,,,,,,,,,,,,,,,,,,,,,,,,,,,,,,,,,,,,,,,,,,,,703,001,2019_May_02_0937,MAER M R1 P1 v1,3.1.0,59.8985650445283,
,Unpleasant,sounds/high 1 second.wav,num_2,images/2700.jpg,,,,,,0,24,24,35,,,,,,,,,,,,,,,,,,,,,,,,,,,,,,,,,,,,,,,,,,,,,,,,356.20591888648437,None,356.20591888648437,None,num_2,1,2.06780482469685,356.20591888648437,None,362.1767039469057,None,,,,,,,,,,,,,,,,,,,,,,,,,,,,,,,,,,,,,,,,,,,,,,,,,,,,,,,703,001,2019_May_02_0937,MAER M R1 P1 v1,3.1.0,59.8985650445283,
,Unpleasant,sounds/low 1 second.wav,num_1,images/9471.jpg,,,,,,0,25,25,34,,,,,,,,,,,,,,,,,,,,,,,,,,,,,,,,,,,,,,,,,,,,,,,,363.2129694007979,None,363.2129694007979,None,num_1,1,2.3010285668269717,363.2129694007979,None,369.1670829169327,None,,,,,,,,,,,,,,,,,,,,,,,,,,,,,,,,,,,,,,,,,,,,,,,,,,,,,,,703,001,2019_May_02_0937,MAER M R1 P1 v1,3.1.0,59.8985650445283,
,Neutral,sounds/low 1 second.wav,num_1,images/7056.jpg,,,,,,0,26,26,12,,,,,,,,,,,,,,,,,,,,,,,,,,,,,,,,,,,,,,,,,,,,,,,,370.2074446700633,None,370.2074446700633,None,num_1,1,2.314231191968247,370.2074446700633,None,376.1574180184282,None,,,,,,,,,,,,,,,,,,,,,,,,,,,,,,,,,,,,,,,,,,,,,,,,,,,,,,,703,001,2019_May_02_0937,MAER M R1 P1 v1,3.1.0,59.8985650445283,
,Pleasant,sounds/high 4 second.wav,num_2,images/1441.jpg,,,,,,0,27,27,23,,,,,,,,,,,,,,,,,,,,,,,,,,,,,,,,,,,,,,,,,,,,,,,,377.1975985885149,None,377.1975985885149,None,num_2,1,5.116478763123723,377.1975985885149,None,383.14761670681924,None,,,,,,,,,,,,,,,,,,,,,,,,,,,,,,,,,,,,,,,,,,,,,,,,,,,,,,,703,001,2019_May_02_0937,MAER M R1 P1 v1,3.1.0,59.8985650445283,
,Neutral,sounds/high 4 second.wav,num_2,images/5530.jpg,,,,,,0,28,28,7,,,,,,,,,,,,,,,,,,,,,,,,,,,,,,,,,,,,,,,,,,,,,,,,384.1839158132832,None,384.1839158132832,None,num_2,1,4.9203635920034685,384.1839158132832,None,390.1546981694803,None,,,,,,,,,,,,,,,,,,,,,,,,,,,,,,,,,,,,,,,,,,,,,,,,,,,,,,,703,001,2019_May_02_0937,MAER M R1 P1 v1,3.1.0,59.8985650445283,
,Pleasant,sounds/low 4 second.wav,num_1,images/2306.jpg,,,,,,0,29,29,22,,,,,,,,,,,,,,,,,,,,,,,,,,,,,,,,,,,,,,,,,,,,,,,,391.19500223248747,None,391.19500223248747,None,num_1,1,5.200087076030286,391.19500223248747,None,397.1450458906904,None,,,,,,,,,,,,,,,,,,,,,,,,,,,,,,,,,,,,,,,,,,,,,,,,,,,,,,,703,001,2019_May_02_0937,MAER M R1 P1 v1,3.1.0,59.8985650445283,
,Neutral,sounds/high 1 second.wav,num_2,images/2210.jpg,,,,,,0,30,30,17,,,,,,,,,,,,,,,,,,,,,,,,,,,,,,,,,,,,,,,,,,,,,,,,398.17983153282034,None,398.17983153282034,None,num_2,1,2.4194192167005895,398.17983153282034,None,404.1518803675101,None,,,,,,,,,,,,,,,,,,,,,,,,,,,,,,,,,,,,,,,,,,,,,,,,,,,,,,,703,001,2019_May_02_0937,MAER M R1 P1 v1,3.1.0,59.8985650445283,
,Neutral,sounds/low 4 second.wav,num_1,images/9700.jpg,,,,,,0,31,31,14,,,,,,,,,,,,,,,,,,,,,,,,,,,,,,,,,,,,,,,,,,,,,,,,405.1879550233373,None,405.1879550233373,None,num_1,1,5.304281748948142,405.1879550233373,None,411.1590264310905,None,,,,,,,,,,,,,,,,,,,,,,,,,,,,,,,,,,,,,,,,,,,,,,,,,,,,,,,703,001,2019_May_02_0937,MAER M R1 P1 v1,3.1.0,59.8985650445283,
,Neutral,sounds/low 1 second.wav,num_1,images/2383.jpg,,,,,,0,32,32,0,,,,,,,,,,,,,,,,,,,,,,,,,,,,,,,,,,,,,,,,,,,,,,,,412.1950866643872,None,412.1950866643872,None,num_1,1,2.234475497622043,412.1950866643872,None,418.1492073917873,None,,,,,,,,,,,,,,,,,,,,,,,,,,,,,,,,,,,,,,,,,,,,,,,,,,,,,,,703,001,2019_May_02_0937,MAER M R1 P1 v1,3.1.0,59.8985650445283,
,Neutral,sounds/high 4 second.wav,num_2,images/7031.jpg,,,,,,0,33,33,3,,,,,,,,,,,,,,,,,,,,,,,,,,,,,,,,,,,,,,,,,,,,,,,,419.17059239944615,None,419.17059239944615,None,num_2,1,5.202241742049409,419.17059239944615,None,425.1395914697939,None,,,,,,,,,,,,,,,,,,,,,,,,,,,,,,,,,,,,,,,,,,,,,,,,,,,,,,,703,001,2019_May_02_0937,MAER M R1 P1 v1,3.1.0,59.8985650445283,
,Pleasant,sounds/low 1 second.wav,num_1,images/8510.jpg,,,,,,0,34,34,24,,,,,,,,,,,,,,,,,,,,,,,,,,,,,,,,,,,,,,,,,,,,,,,,426.1762072709987,None,426.1762072709987,None,num_1,1,1.7673315253086912,426.1762072709987,None,432.12999988582146,None,,,,,,,,,,,,,,,,,,,,,,,,,,,,,,,,,,,,,,,,,,,,,,,,,,,,,,,703,001,2019_May_02_0937,MAER M R1 P1 v1,3.1.0,59.8985650445283,
,Pleasant,sounds/low 1 second.wav,num_1,images/4150.jpg,,,,,,0,35,35,28,,,,,,,,,,,,,,,,,,,,,,,,,,,,,,,,,,,,,,,,,,,,,,,,433.1653834620445,None,433.1653834620445,None,num_1,1,2.168434428263936,433.1653834620445,None,439.1202860108058,None,,,,,,,,,,,,,,,,,,,,,,,,,,,,,,,,,,,,,,,,,,,,,,,,,,,,,,,703,001,2019_May_02_0937,MAER M R1 P1 v1,3.1.0,59.8985650445283,
,Neutral,sounds/low 1 second.wav,num_1,images/7170.jpg,,,,,,0,36,36,8,,,,,,,,,,,,,,,,,,,,,,,,,,,,,,,,,,,,,,,,,,,,,,,,440.15449505217043,None,440.15449505217043,None,num_1,1,2.3034112891159566,440.15449505217043,None,446.11058535644383,None,,,,,,,,,,,,,,,,,,,,,,,,,,,,,,,,,,,,,,,,,,,,,,,,,,,,,,,703,001,2019_May_02_0937,MAER M R1 P1 v1,3.1.0,59.8985650445283,
,Neutral,sounds/high 4 second.wav,num_2,images/7025.jpg,,,,,,0,37,37,19,,,,,,,,,,,,,,,,,,,,,,,,,,,,,,,,,,,,,,,,,,,,,,,,447.14548187178,None,447.14548187178,None,num_2,1,5.188499774347747,447.14548187178,None,453.1176659176965,None,,,,,,,,,,,,,,,,,,,,,,,,,,,,,,,,,,,,,,,,,,,,,,,,,,,,,,,703,001,2019_May_02_0937,MAER M R1 P1 v1,3.1.0,59.8985650445283,
,Neutral,sounds/low 4 second.wav,num_1,images/5520.jpg,,,,,,0,38,38,2,,,,,,,,,,,,,,,,,,,,,,,,,,,,,,,,,,,,,,,,,,,,,,,,454.15693155848044,None,454.15693155848044,None,num_1,1,5.25075222512578,454.15693155848044,None,460.1079060708637,None,,,,,,,,,,,,,,,,,,,,,,,,,,,,,,,,,,,,,,,,,,,,,,,,,,,,,,,703,001,2019_May_02_0937,MAER M R1 P1 v1,3.1.0,59.8985650445283,
,Pleasant,sounds/low 4 second.wav,num_1,images/2362.jpg,,,,,,0,39,39,26,,,,,,,,,,,,,,,,,,,,,,,,,,,,,,,,,,,,,,,,,,,,,,,,461.13577671037706,None,461.13577671037706,None,num_1,1,4.812143831092726,461.13577671037706,None,467.11490851007443,None,,,,,,,,,,,,,,,,,,,,,,,,,,,,,,,,,,,,,,,,,,,,,,,,,,,,,,,703,001,2019_May_02_0937,MAER M R1 P1 v1,3.1.0,59.8985650445283,
,,,,,,,,,,,,,,,,,,,,,,,,,,,,,,,,,,,,,,,,,,,,,,,,,,,,,,,,,,,,,,,,,,,,,,,,468.14459428519217,None,space,1.5021492575701814,471.1688917426802,None,,,,,,,,,,,,,,,,,,,,,,,,,,,,,,,,,,,,,,,,,,,,,,,,,703,001,2019_May_02_0937,MAER M R1 P1 v1,3.1.0,59.8985650445283,
,,,,,,,,,,,,,,,,,,,,,,,,,,,,,,,,,,,,,,,,,,,,,,,,,,,,,,,,,,,,,,,,,,,,,,,,,,,,,,472.68720685454787,None,space,4.989291871761907,477.69198762306473,None,,,,,,,,,,,,,,,,,,,,,,,,,,,,,,,,,,,,,,,,,,,703,001,2019_May_02_0937,MAER M R1 P1 v1,3.1.0,59.8985650445283,
,,,,,,,,,,,,,,,,,,,,,,,,,,,,,,,,,,,,,,,,,,,,,,,,,,,,,,,,,,,,,,,,,,,,,,,,,,,,,,,,,,,,482.6968173680923,None,space,1.2687942103152636,485.69997169578323,None,,,,,,,,,,,,,,,,,,,,,,,,,,,,,,,,,,,,,703,001,2019_May_02_0937,MAER M R1 P1 v1,3.1.0,59.8985650445283,
,Pleasant,,,,images/1721.jpg,,,,,,,,,0,0,0,4,,,,,,,,,,,,,,,,,,,,,,,,,486.984936267437,None,,,,,,,,,,,,,,,,,,,,,,,,,,,,,,,,,,,,,,,,,,,,,,,492.03026898621033,497.9957198134923,498.0123291606144,None,num_7,6.824188146722463,498.0123291606144,None,498.0123291606144,None,25,17.579,504.86593866938915,None,504.86593866938915,None,504.86593866938915,None,522.4532538732008,None,,,,,,,,,,,,,,,,,703,001,2019_May_02_0937,MAER M R1 P1 v1,3.1.0,59.8985650445283,
,Neutral,,,,images/2745.jpg,,,,,,,,,0,1,1,3,,,,,,,,,,,,,,,,,,,,,,,,,,,,,,,,,,,,,,,,,,,,,,,,,,,,,,,,,,,,,,,,,,,,,,,,,532.4861041919687,538.4363596810938,538.4526995071699,None,num_5,3.771133665011803,538.4526995071699,None,538.4526995071699,None,5,7.861,542.2466394000705,None,542.2466394000705,None,542.2466394000705,None,550.1305903081795,None,,,,,,,,,,,,,,,,,703,001,2019_May_02_0937,MAER M R1 P1 v1,3.1.0,59.8985650445283,
,Unpleasant,,,,images/3350.jpg,,,,,,,,,0,2,2,10,,,,,,,,,,,,,,,,,,,,,,,,,,,,,,,,,,,,,,,,,,,,,,,,,,,,,,,,,,,,,,,,,,,,,,,,,560.1611167966596,566.1305611626483,566.1305611626483,None,num_8,4.855497057503271,566.1305611626483,None,566.1305611626483,None,-10,13.05,571.010331640088,None,571.010331640088,None,571.010331640088,None,584.0813394685176,None,,,,,,,,,,,,,,,,,703,001,2019_May_02_0937,MAER M R1 P1 v1,3.1.0,59.8985650445283,
,Pleasant,,,,images/1650.jpg,,,,,,,,,0,3,3,6,,,,,,,,,,,,,,,,,,,,,,,,,,,,,,,,,,,,,,,,,,,,,,,,,,,,,,,,,,,,,,,,,,,,,,,,,594.1129933181617,600.0642592858565,600.0810885765743,None,num_7,4.139047620192287,600.0810885765743,None,600.0810885765743,None,30,6.357,604.2449934287345,None,604.2449934287345,None,604.2449934287345,None,610.6247618028885,None,,,,,,,,,,,,,,,,,703,001,2019_May_02_0937,MAER M R1 P1 v1,3.1.0,59.8985650445283,
,Pleasant,,,,images/8380.jpg,,,,,,,,,0,4,4,5,,,,,,,,,,,,,,,,,,,,,,,,,,,,,,,,,,,,,,,,,,,,,,,,,,,,,,,,,,,,,,,,,,,,,,,,,620.6556188077013,626.6076425592057,626.6242558124302,None,num_6,3.7544305714391157,626.6242558124302,None,626.6242558124302,None,20,5.376,630.4018976445002,None,630.4018976445002,None,630.4018976445002,None,635.7995096940438,None,,,,,,,,,,,,,,,,,703,001,2019_May_02_0937,MAER M R1 P1 v1,3.1.0,59.8985650445283,
,Neutral,,,,images/2393.jpg,,,,,,,,,0,5,5,2,,,,,,,,,,,,,,,,,,,,,,,,,,,,,,,,,,,,,,,,,,,,,,,,,,,,,,,,,,,,,,,,,,,,,,,,,645.8300241637487,651.7825271639356,651.7994967738598,None,num_5,2.052439120393956,651.7994967738598,None,651.7994967738598,None,5,3.841,653.8754202815637,None,653.8754202815637,None,653.8754202815637,None,657.7383109894274,None,,,,,,,,,,,,,,,,,703,001,2019_May_02_0937,MAER M R1 P1 v1,3.1.0,59.8985650445283,
,Neutral,,,,images/7180.jpg,,,,,,,,,0,6,6,1,,,,,,,,,,,,,,,,,,,,,,,,,,,,,,,,,,,,,,,,,,,,,,,,,,,,,,,,,,,,,,,,,,,,,,,,,667.7650680893692,673.7210829758249,673.7378945388484,None,num_6,6.474517190755705,673.7378945388484,None,673.7378945388484,None,8,6.159,680.2355097132738,None,680.2355097132738,None,680.2355097132738,None,686.4170839685755,None,,,,,,,,,,,,,,,,,703,001,2019_May_02_0937,MAER M R1 P1 v1,3.1.0,59.8985650445283,
,Unpleasant,,,,images/2205.jpg,,,,,,,,,0,7,7,8,,,,,,,,,,,,,,,,,,,,,,,,,,,,,,,,,,,,,,,,,,,,,,,,,,,,,,,,,,,,,,,,,,,,,,,,,696.4448344203313,702.3998607624828,702.4166008137911,None,num_8,1.885733292549503,702.4166008137911,None,702.4166008137911,None,-15,11.015,704.3254335923577,None,704.3254335923577,None,704.3254335923577,None,715.3625496751022,None,,,,,,,,,,,,,,,,,703,001,2019_May_02_0937,MAER M R1 P1 v1,3.1.0,59.8985650445283,
,Unpleasant,,,,images/3500.jpg,,,,,,,,,0,8,8,11,,,,,,,,,,,,,,,,,,,,,,,,,,,,,,,,,,,,,,,,,,,,,,,,,,,,,,,,,,,,,,,,,,,,,,,,,725.391718943333,731.3619114781111,731.3619114781111,None,num_8,4.054995513992253,731.3619114781111,None,731.3619114781111,None,-25,4.858,735.4420301394837,None,735.4420301394837,None,735.4420301394837,None,740.3207180256998,None,,,,,,,,,,,,,,,,,703,001,2019_May_02_0937,MAER M R1 P1 v1,3.1.0,59.8985650445283,
,Pleasant,,,,images/2389.jpg,,,,,,,,,0,9,9,7,,,,,,,,,,,,,,,,,,,,,,,,,,,,,,,,,,,,,,,,,,,,,,,,,,,,,,,,,,,,,,,,,,,,,,,,,750.3480637451828,756.3035540120775,756.3203947206323,None,num_5,3.5875730065508833,756.3203947206323,None,756.3203947206323,None,2,8.929,759.9302171852867,None,759.9302171852867,None,759.9302171852867,None,768.8826008991243,None,,,,,,,,,,,,,,,,,703,001,2019_May_02_0937,MAER M R1 P1 v1,3.1.0,59.8985650445283,
,Unpleasant,,,,images/2276.jpg,,,,,,,,,0,10,10,9,,,,,,,,,,,,,,,,,,,,,,,,,,,,,,,,,,,,,,,,,,,,,,,,,,,,,,,,,,,,,,,,,,,,,,,,,778.9105806090272,784.8821087302583,784.8821087302583,None,num_8,3.7047413469322237,784.8821087302583,None,784.8821087302583,None,-32,7.845,788.6101896382527,None,788.6101896382527,None,788.6101896382527,None,796.4769356689019,None,,,,,,,,,,,,,,,,,703,001,2019_May_02_0937,MAER M R1 P1 v1,3.1.0,59.8985650445283,
,Neutral,,,,images/7513.jpg,,,,,,,,,0,11,11,0,,,,,,,,,,,,,,,,,,,,,,,,,,,,,,,,,,,,,,,,,,,,,,,,,,,,,,,,,,,,,,,,,,,,,,,,,806.5032817267136,812.4599185848131,812.4765585798134,None,num_4,3.637686794309957,812.4765585798134,None,812.4765585798134,None,9,5.143,816.1367556396601,None,816.1367556396601,None,816.1367556396601,None,821.3015682098574,None,,,,,,,,,,,,,,,,,703,001,2019_May_02_0937,MAER M R1 P1 v1,3.1.0,59.8985650445283,
,,,,,,,,,,,,,,,,,,,,,,,,,,,,,,,,,,,,,,,,,,,,,,,,,,,,,,,,,,,,,,,,,,,,,,,,,,,,,,,,,,,,,,,,,,,,,,,,,,,,,,,,,,,,,,831.328832802604,None,space,3.4039363293336464,834.3483035197585,None,,,,,,,,,,,703,001,2019_May_02_0937,MAER M R1 P1 v1,3.1.0,59.8985650445283,
,,,,,,,,,,,,,,,,,,,,,,,,,,,,,,,,,,,,,,,,,,,,,,,,,,,,,,,,,,,,,,,,,,,,,,,,,,,,,,,,,,,,,,,,,,,,,,,,,,,,,,,,,,,,,,,,,,,,838.0610824229609,None,838.0610824229609,1737.7672350746336,1738.3009360222538,None,space,10.093814056318934,1743.306217673249,None,703,001,2019_May_02_0937,MAER M R1 P1 v1,3.1.0,59.8985650445283,
