PracticeImage,ImageCategory,SoundFile,CorrectAns,ReactivityImage1,PictureRatings_1,prac_reac_loop.thisRepN,prac_reac_loop.thisTrialN,prac_reac_loop.thisN,prac_reac_loop.thisIndex,reac_1_loop.thisRepN,reac_1_loop.thisTrialN,reac_1_loop.thisN,reac_1_loop.thisIndex,prt_1_loop.thisRepN,prt_1_loop.thisTrialN,prt_1_loop.thisN,prt_1_loop.thisIndex,slide1_headphones.started,slide1_headphones.stopped,slide1_headphones_resp.keys,slide1_headphones_resp.rt,slide1_headphones_resp.started,slide1_headphones_resp.stopped,reac_info_1.started,reac_info_1.stopped,reac_info_1_resp.keys,reac_info_1_resp.rt,reac_info_1_resp.started,reac_info_1_resp.stopped,reac_info_2.started,reac_info_2.stopped,reac_info_2_resp.keys,reac_info_2_resp.rt,reac_info_2_resp.started,reac_info_2_resp.stopped,reac_info_3.started,reac_info_3.stopped,reac_info_3_resp.keys,reac_info_3_resp.rt,reac_info_3_resp.started,reac_info_3_resp.stopped,blank_5seconds.started,blank_5seconds.stopped,practice_reac_image.started,practice_reac_image.stopped,practice_reac_sound.started,practice_reac_sound.stopped,practice_reac_keys.keys,practice_reac_keys.corr,practice_reac_keys.rt,practice_reac_keys.started,practice_reac_keys.stopped,blank_1second.started,blank_1second.stopped,post_prac_reac_text.started,post_prac_reac_text.stopped,post_prac_reac_resp.keys,post_prac_reac_resp.rt,post_prac_reac_resp.started,post_prac_reac_resp.stopped,reac_1_image.started,reac_1_image.stopped,reac_1_sound.started,reac_1_sound.stopped,reac_1_keys.keys,reac_1_keys.corr,reac_1_keys.rt,reac_1_keys.started,reac_1_keys.stopped,blank2_1second.started,blank2_1second.stopped,postreac1_slide1_text.started,postreac1_slide1_text.stopped,postreac1_slide1_resp.keys,postreac1_slide1_resp.rt,postreac1_slide1_resp.started,postreac1_slide1_resp.stopped,postreac1_slide2_text.started,postreac1_slide2_text.stopped,postreac1_slide2_resp.keys,postreac1_slide2_resp.rt,postreac1_slide2_resp.started,postreac1_slide2_resp.stopped,postreac1_slide3_text.started,postreac1_slide3_text.stopped,postreac1_slide3_resp.keys,postreac1_slide3_resp.rt,postreac1_slide3_resp.started,postreac1_slide3_resp.stopped,prt_1_image.started,prt_1_image.stopped,prt_1_image_intensity.started,prt_1_image_intensity.stopped,prt_1_image_intensity_resp.keys,prt_1_image_intensity_resp.rt,prt_1_image_intensity_resp.started,prt_1_image_intensity_resp.stopped,prt_1_image_intensity_text.started,prt_1_image_intensity_text.stopped,prt_1_vas.response,prt_1_vas.rt,prt_1_vas.started,prt_1_vas.stopped,prt_1_vas_guide.started,prt_1_vas_guide.stopped,prt_1_vas_instructions.started,prt_1_vas_instructions.stopped,blank_10seconds.started,blank_10seconds.stopped,pre_m_text.started,pre_m_text.stopped,pre_m_resp.keys,pre_m_resp.rt,pre_m_resp.started,pre_m_resp.stopped,m_audio_file.started,m_audio_file.stopped,m_inprogress_text.started,m_inprogress_text.stopped,pleasewait_text.started,pleasewait_text.stopped,pleasewait_resp.keys,pleasewait_resp.rt,pleasewait_resp.started,pleasewait_resp.stopped,participant,session,date,expName,psychopyVersion,frameRate,
,,,,,,,,,,,,,,,,,,9.463024420027068,None,space,15.292882878037744,9.463024420027068,None,,,,,,,,,,,,,,,,,,,,,,,,,,,,,,,,,,,,,,,,,,,,,,,,,,,,,,,,,,,,,,,,,,,,,,,,,,,,,,,,,,,,,,,,,,,,,,,,,,,,,,,717,001,2019_May_06_1117,MAER M R1 P1 v1,3.1.0,59.88159090280656,
,,,,,,,,,,,,,,,,,,,,,,,,24.77194664028957,None,space,21.705378006681713,27.774953134328825,None,,,,,,,,,,,,,,,,,,,,,,,,,,,,,,,,,,,,,,,,,,,,,,,,,,,,,,,,,,,,,,,,,,,,,,,,,,,,,,,,,,,,,,,,,,,,,,,,,717,001,2019_May_06_1117,MAER M R1 P1 v1,3.1.0,59.88159090280656,
,,,,,,,,,,,,,,,,,,,,,,,,,,,,,,49.4967061072457,None,space,24.208134059707845,52.49959031035178,None,,,,,,,,,,,,,,,,,,,,,,,,,,,,,,,,,,,,,,,,,,,,,,,,,,,,,,,,,,,,,,,,,,,,,,,,,,,,,,,,,,,,,,,,,,,717,001,2019_May_06_1117,MAER M R1 P1 v1,3.1.0,59.88159090280656,
,,,,,,,,,,,,,,,,,,,,,,,,,,,,,,,,,,,,76.72404284809909,None,space,6.740826452340116,81.72902642896406,None,,,,,,,,,,,,,,,,,,,,,,,,,,,,,,,,,,,,,,,,,,,,,,,,,,,,,,,,,,,,,,,,,,,,,,,,,,,,,,,,,,,,,717,001,2019_May_06_1117,MAER M R1 P1 v1,3.1.0,59.88159090280656,
images/7053.jpg,Neutral,sounds/high 1 second.wav,num_2,,,0,0,0,2,,,,,,,,,,,,,,,,,,,,,,,,,,,,,,,,,88.48577173541071,None,93.55299599264345,None,93.55299599264345,None,['num_2'],0,[2.1738520351818806],93.55299599264345,None,99.49665953453132,None,,,,,,,,,,,,,,,,,,,,,,,,,,,,,,,,,,,,,,,,,,,,,,,,,,,,,,,,,,,,,,,,,,,,,,,,717,001,2019_May_06_1117,MAER M R1 P1 v1,3.1.0,59.88159090280656,
images/7059.jpg,Neutral,sounds/high 4 second.wav,num_2,,,0,1,1,3,,,,,,,,,,,,,,,,,,,,,,,,,,,,,,,,,,,100.51604790559486,None,100.51604790559486,None,['num_2'],0,[4.754110793181098],100.51604790559486,None,106.48700786538029,None,,,,,,,,,,,,,,,,,,,,,,,,,,,,,,,,,,,,,,,,,,,,,,,,,,,,,,,,,,,,,,,,,,,,,,,,717,001,2019_May_06_1117,MAER M R1 P1 v1,3.1.0,59.88159090280656,
images/7042.jpg,Neutral,sounds/low 4 second.wav,num_1,,,0,2,2,1,,,,,,,,,,,,,,,,,,,,,,,,,,,,,,,,,,,107.52087283876335,None,107.52087283876335,None,['num_1'],0,[4.755435261073217],107.52087283876335,None,113.47735078778533,None,,,,,,,,,,,,,,,,,,,,,,,,,,,,,,,,,,,,,,,,,,,,,,,,,,,,,,,,,,,,,,,,,,,,,,,,717,001,2019_May_06_1117,MAER M R1 P1 v1,3.1.0,59.88159090280656,
images/7041.jpg,Neutral,sounds/low 1 second.wav,num_1,,,0,3,3,0,,,,,,,,,,,,,,,,,,,,,,,,,,,,,,,,,,,114.50800344577965,None,114.50800344577965,None,['num_1'],0,[1.6223520782996275],114.50800344577965,None,120.46747767289071,None,,,,,,,,,,,,,,,,,,,,,,,,,,,,,,,,,,,,,,,,,,,,,,,,,,,,,,,,,,,,,,,,,,,,,,,,717,001,2019_May_06_1117,MAER M R1 P1 v1,3.1.0,59.88159090280656,
,,,,,,,,,,,,,,,,,,,,,,,,,,,,,,,,,,,,,,,,,,,,,,,,,,,,,,,121.47796104057306,None,space,37.35418548980488,124.50492393774402,None,,,,,,,,,,,,,,,,,,,,,,,,,,,,,,,,,,,,,,,,,,,,,,,,,,,,,,,,,,,,,,,,,,717,001,2019_May_06_1117,MAER M R1 P1 v1,3.1.0,59.88159090280656,
,Neutral,sounds/low 1 second.wav,num_1,images/2512.jpg,,,,,,0,0,0,4,,,,,,,,,,,,,,,,,,,,,,,,,,,,,161.87558174577953,None,,,,,,,,,,,,,,,,,,166.90962339500675,None,166.90962339500675,None,num_1,1,1.7729099442958614,166.90962339500675,None,172.88658732879685,None,,,,,,,,,,,,,,,,,,,,,,,,,,,,,,,,,,,,,,,,,,,,,,,,,,,,,,,717,001,2019_May_06_1117,MAER M R1 P1 v1,3.1.0,59.88159090280656,
,Neutral,sounds/high 1 second.wav,num_2,images/2210.jpg,,,,,,0,1,1,17,,,,,,,,,,,,,,,,,,,,,,,,,,,,,,,,,,,,,,,,,,,,,,,,173.9156511060719,None,173.9156511060719,None,num_2,1,1.6905747944265386,173.9156511060719,None,179.87694557512623,None,,,,,,,,,,,,,,,,,,,,,,,,,,,,,,,,,,,,,,,,,,,,,,,,,,,,,,,717,001,2019_May_06_1117,MAER M R1 P1 v1,3.1.0,59.88159090280656,
,Neutral,sounds/low 4 second.wav,num_1,images/7038.jpg,,,,,,0,2,2,6,,,,,,,,,,,,,,,,,,,,,,,,,,,,,,,,,,,,,,,,,,,,,,,,180.90886651328765,None,180.90886651328765,None,num_1,1,4.92427697363928,180.90886651328765,None,186.8673624129351,None,,,,,,,,,,,,,,,,,,,,,,,,,,,,,,,,,,,,,,,,,,,,,,,,,,,,,,,717,001,2019_May_06_1117,MAER M R1 P1 v1,3.1.0,59.88159090280656,
,Neutral,sounds/low 1 second.wav,num_1,images/7170.jpg,,,,,,0,3,3,8,,,,,,,,,,,,,,,,,,,,,,,,,,,,,,,,,,,,,,,,,,,,,,,,187.89504523412415,None,187.89504523412415,None,num_1,1,1.8091143702658883,187.89504523412415,None,193.85759115707333,None,,,,,,,,,,,,,,,,,,,,,,,,,,,,,,,,,,,,,,,,,,,,,,,,,,,,,,,717,001,2019_May_06_1117,MAER M R1 P1 v1,3.1.0,59.88159090280656,
,Neutral,sounds/high 1 second.wav,num_2,images/7235.jpg,,,,,,0,4,4,9,,,,,,,,,,,,,,,,,,,,,,,,,,,,,,,,,,,,,,,,,,,,,,,,194.885173020637,None,194.885173020637,None,num_2,1,1.7089821338058755,194.885173020637,None,200.86444786244738,None,,,,,,,,,,,,,,,,,,,,,,,,,,,,,,,,,,,,,,,,,,,,,,,,,,,,,,,717,001,2019_May_06_1117,MAER M R1 P1 v1,3.1.0,59.88159090280656,
,Neutral,sounds/low 4 second.wav,num_1,images/2499.jpg,,,,,,0,5,5,18,,,,,,,,,,,,,,,,,,,,,,,,,,,,,,,,,,,,,,,,,,,,,,,,201.88536622228276,None,201.88536622228276,None,num_1,1,4.768756559616122,201.88536622228276,None,207.85511318822137,None,,,,,,,,,,,,,,,,,,,,,,,,,,,,,,,,,,,,,,,,,,,,,,,,,,,,,,,717,001,2019_May_06_1117,MAER M R1 P1 v1,3.1.0,59.88159090280656,
,Neutral,sounds/low 1 second.wav,num_1,images/7056.jpg,,,,,,0,6,6,12,,,,,,,,,,,,,,,,,,,,,,,,,,,,,,,,,,,,,,,,,,,,,,,,208.8863556671031,None,208.8863556671031,None,num_1,1,1.788520216613506,208.8863556671031,None,214.8453689745802,None,,,,,,,,,,,,,,,,,,,,,,,,,,,,,,,,,,,,,,,,,,,,,,,,,,,,,,,717,001,2019_May_06_1117,MAER M R1 P1 v1,3.1.0,59.88159090280656,
,Unpleasant,sounds/low 1 second.wav,num_1,images/9471.jpg,,,,,,0,7,7,34,,,,,,,,,,,,,,,,,,,,,,,,,,,,,,,,,,,,,,,,,,,,,,,,215.87876070909533,None,215.87876070909533,None,num_1,1,1.769587957677686,215.87876070909533,None,221.8521060932435,None,,,,,,,,,,,,,,,,,,,,,,,,,,,,,,,,,,,,,,,,,,,,,,,,,,,,,,,717,001,2019_May_06_1117,MAER M R1 P1 v1,3.1.0,59.88159090280656,
,Neutral,sounds/high 4 second.wav,num_2,images/7031.jpg,,,,,,0,8,8,3,,,,,,,,,,,,,,,,,,,,,,,,,,,,,,,,,,,,,,,,,,,,,,,,222.88098898810767,None,222.88098898810767,None,num_2,1,4.6944490432906605,222.88098898810767,None,228.84246253675883,None,,,,,,,,,,,,,,,,,,,,,,,,,,,,,,,,,,,,,,,,,,,,,,,,,,,,,,,717,001,2019_May_06_1117,MAER M R1 P1 v1,3.1.0,59.88159090280656,
,Unpleasant,sounds/high 4 second.wav,num_2,images/9008.jpg,,,,,,0,9,9,37,,,,,,,,,,,,,,,,,,,,,,,,,,,,,,,,,,,,,,,,,,,,,,,,229.87432338109465,None,229.87432338109465,None,num_2,1,4.674722944933819,229.87432338109465,None,235.83249146893104,None,,,,,,,,,,,,,,,,,,,,,,,,,,,,,,,,,,,,,,,,,,,,,,,,,,,,,,,717,001,2019_May_06_1117,MAER M R1 P1 v1,3.1.0,59.88159090280656,
,Neutral,sounds/high 4 second.wav,num_2,images/5530.jpg,,,,,,0,10,10,7,,,,,,,,,,,,,,,,,,,,,,,,,,,,,,,,,,,,,,,,,,,,,,,,236.86412305532667,None,236.86412305532667,None,num_2,1,4.658873198724905,236.86412305532667,None,242.82308858821307,None,,,,,,,,,,,,,,,,,,,,,,,,,,,,,,,,,,,,,,,,,,,,,,,,,,,,,,,717,001,2019_May_06_1117,MAER M R1 P1 v1,3.1.0,59.88159090280656,
,Pleasant,sounds/high 1 second.wav,num_2,images/2391.jpg,,,,,,0,11,11,25,,,,,,,,,,,,,,,,,,,,,,,,,,,,,,,,,,,,,,,,,,,,,,,,243.84162542978356,None,243.84162542978356,None,num_2,1,1.9010035368219178,243.84162542978356,None,249.8132821774634,None,,,,,,,,,,,,,,,,,,,,,,,,,,,,,,,,,,,,,,,,,,,,,,,,,,,,,,,717,001,2019_May_06_1117,MAER M R1 P1 v1,3.1.0,59.88159090280656,
,Pleasant,sounds/high 4 second.wav,num_2,images/2311.jpg,,,,,,0,12,12,27,,,,,,,,,,,,,,,,,,,,,,,,,,,,,,,,,,,,,,,,,,,,,,,,250.8340097394066,None,250.8340097394066,None,num_2,1,4.719017502025963,250.8340097394066,None,256.80395711824895,None,,,,,,,,,,,,,,,,,,,,,,,,,,,,,,,,,,,,,,,,,,,,,,,,,,,,,,,717,001,2019_May_06_1117,MAER M R1 P1 v1,3.1.0,59.88159090280656,
,Neutral,sounds/low 4 second.wav,num_1,images/9700.jpg,,,,,,0,13,13,14,,,,,,,,,,,,,,,,,,,,,,,,,,,,,,,,,,,,,,,,,,,,,,,,257.8225369269039,None,257.8225369269039,None,num_1,1,4.971048898645677,257.8225369269039,None,263.79389050123973,None,,,,,,,,,,,,,,,,,,,,,,,,,,,,,,,,,,,,,,,,,,,,,,,,,,,,,,,717,001,2019_May_06_1117,MAER M R1 P1 v1,3.1.0,59.88159090280656,
,Unpleasant,sounds/low 1 second.wav,num_1,images/6311.jpg,,,,,,0,14,14,30,,,,,,,,,,,,,,,,,,,,,,,,,,,,,,,,,,,,,,,,,,,,,,,,264.813217877072,None,264.813217877072,None,num_1,1,1.7845522213838194,264.813217877072,None,270.80089173226133,None,,,,,,,,,,,,,,,,,,,,,,,,,,,,,,,,,,,,,,,,,,,,,,,,,,,,,,,717,001,2019_May_06_1117,MAER M R1 P1 v1,3.1.0,59.88159090280656,
,Pleasant,sounds/high 1 second.wav,num_2,images/1900.jpg,,,,,,0,15,15,29,,,,,,,,,,,,,,,,,,,,,,,,,,,,,,,,,,,,,,,,,,,,,,,,271.83055133980724,None,271.83055133980724,None,num_2,1,1.890776769771037,271.83055133980724,None,277.79094350008654,None,,,,,,,,,,,,,,,,,,,,,,,,,,,,,,,,,,,,,,,,,,,,,,,,,,,,,,,717,001,2019_May_06_1117,MAER M R1 P1 v1,3.1.0,59.88159090280656,
,Pleasant,sounds/low 1 second.wav,num_1,images/4150.jpg,,,,,,0,16,16,28,,,,,,,,,,,,,,,,,,,,,,,,,,,,,,,,,,,,,,,,,,,,,,,,278.822967799626,None,278.822967799626,None,num_1,1,1.822026129396363,278.822967799626,None,284.78144717347186,None,,,,,,,,,,,,,,,,,,,,,,,,,,,,,,,,,,,,,,,,,,,,,,,,,,,,,,,717,001,2019_May_06_1117,MAER M R1 P1 v1,3.1.0,59.88159090280656,
,Neutral,sounds/high 4 second.wav,num_2,images/7025.jpg,,,,,,0,17,17,19,,,,,,,,,,,,,,,,,,,,,,,,,,,,,,,,,,,,,,,,,,,,,,,,285.8129065910607,None,285.8129065910607,None,num_2,1,4.774924289292358,285.8129065910607,None,291.7719313163643,None,,,,,,,,,,,,,,,,,,,,,,,,,,,,,,,,,,,,,,,,,,,,,,,,,,,,,,,717,001,2019_May_06_1117,MAER M R1 P1 v1,3.1.0,59.88159090280656,
,Pleasant,sounds/low 4 second.wav,num_1,images/2306.jpg,,,,,,0,18,18,22,,,,,,,,,,,,,,,,,,,,,,,,,,,,,,,,,,,,,,,,,,,,,,,,292.8086360234238,None,292.8086360234238,None,num_1,1,4.786497758951555,292.8086360234238,None,298.77850888592366,None,,,,,,,,,,,,,,,,,,,,,,,,,,,,,,,,,,,,,,,,,,,,,,,,,,,,,,,717,001,2019_May_06_1117,MAER M R1 P1 v1,3.1.0,59.88159090280656,
,Neutral,sounds/high 1 second.wav,num_2,images/5510.jpg,,,,,,0,19,19,13,,,,,,,,,,,,,,,,,,,,,,,,,,,,,,,,,,,,,,,,,,,,,,,,299.8083076106723,None,299.8083076106723,None,num_2,1,1.740812931228902,299.8083076106723,None,305.78594068919847,None,,,,,,,,,,,,,,,,,,,,,,,,,,,,,,,,,,,,,,,,,,,,,,,,,,,,,,,717,001,2019_May_06_1117,MAER M R1 P1 v1,3.1.0,59.88159090280656,
,Neutral,sounds/low 4 second.wav,num_1,images/5520.jpg,,,,,,0,20,20,2,,,,,,,,,,,,,,,,,,,,,,,,,,,,,,,,,,,,,,,,,,,,,,,,306.80644259882956,None,306.80644259882956,None,num_1,1,4.902547647641768,306.80644259882956,None,312.79287431466764,None,,,,,,,,,,,,,,,,,,,,,,,,,,,,,,,,,,,,,,,,,,,,,,,,,,,,,,,717,001,2019_May_06_1117,MAER M R1 P1 v1,3.1.0,59.88159090280656,
,Unpleasant,sounds/high 1 second.wav,num_2,images/9280.jpg,,,,,,0,21,21,31,,,,,,,,,,,,,,,,,,,,,,,,,,,,,,,,,,,,,,,,,,,,,,,,313.82437820168616,None,313.82437820168616,None,num_2,1,1.7884099444463573,313.82437820168616,None,319.78309374426317,None,,,,,,,,,,,,,,,,,,,,,,,,,,,,,,,,,,,,,,,,,,,,,,,,,,,,,,,717,001,2019_May_06_1117,MAER M R1 P1 v1,3.1.0,59.88159090280656,
,Pleasant,sounds/low 1 second.wav,num_1,images/1605.jpg,,,,,,0,22,22,20,,,,,,,,,,,,,,,,,,,,,,,,,,,,,,,,,,,,,,,,,,,,,,,,320.80568000819676,None,320.80568000819676,None,num_1,1,2.0479924305818713,320.80568000819676,None,326.7733615493871,None,,,,,,,,,,,,,,,,,,,,,,,,,,,,,,,,,,,,,,,,,,,,,,,,,,,,,,,717,001,2019_May_06_1117,MAER M R1 P1 v1,3.1.0,59.88159090280656,
,Pleasant,sounds/high 1 second.wav,num_2,images/2360.jpg,,,,,,0,23,23,21,,,,,,,,,,,,,,,,,,,,,,,,,,,,,,,,,,,,,,,,,,,,,,,,327.79319641756683,None,327.79319641756683,None,num_2,1,1.850300273817993,327.79319641756683,None,333.76391239642453,None,,,,,,,,,,,,,,,,,,,,,,,,,,,,,,,,,,,,,,,,,,,,,,,,,,,,,,,717,001,2019_May_06_1117,MAER M R1 P1 v1,3.1.0,59.88159090280656,
,Unpleasant,sounds/high 1 second.wav,num_2,images/9561.jpg,,,,,,0,24,24,39,,,,,,,,,,,,,,,,,,,,,,,,,,,,,,,,,,,,,,,,,,,,,,,,334.78392994983096,None,334.78392994983096,None,num_2,1,1.9172474985189183,334.78392994983096,None,340.77045090499814,None,,,,,,,,,,,,,,,,,,,,,,,,,,,,,,,,,,,,,,,,,,,,,,,,,,,,,,,717,001,2019_May_06_1117,MAER M R1 P1 v1,3.1.0,59.88159090280656,
,Neutral,sounds/high 4 second.wav,num_2,images/2190.jpg,,,,,,0,25,25,11,,,,,,,,,,,,,,,,,,,,,,,,,,,,,,,,,,,,,,,,,,,,,,,,341.8012117318767,None,341.8012117318767,None,num_2,1,4.85952557728433,341.8012117318767,None,347.76125174234585,None,,,,,,,,,,,,,,,,,,,,,,,,,,,,,,,,,,,,,,,,,,,,,,,,,,,,,,,717,001,2019_May_06_1117,MAER M R1 P1 v1,3.1.0,59.88159090280656,
,Unpleasant,sounds/low 4 second.wav,num_1,images/2750.jpg,,,,,,0,26,26,36,,,,,,,,,,,,,,,,,,,,,,,,,,,,,,,,,,,,,,,,,,,,,,,,348.7867859088392,None,348.7867859088392,None,num_1,1,4.897483841522444,348.7867859088392,None,354.75113855262225,None,,,,,,,,,,,,,,,,,,,,,,,,,,,,,,,,,,,,,,,,,,,,,,,,,,,,,,,717,001,2019_May_06_1117,MAER M R1 P1 v1,3.1.0,59.88159090280656,
,Neutral,sounds/low 1 second.wav,num_1,images/7080.jpg,,,,,,0,27,27,16,,,,,,,,,,,,,,,,,,,,,,,,,,,,,,,,,,,,,,,,,,,,,,,,355.78366643841036,None,355.78366643841036,None,num_1,1,1.804258188309177,355.78366643841036,None,361.74134746579875,None,,,,,,,,,,,,,,,,,,,,,,,,,,,,,,,,,,,,,,,,,,,,,,,,,,,,,,,717,001,2019_May_06_1117,MAER M R1 P1 v1,3.1.0,59.88159090280656,
,Neutral,sounds/high 1 second.wav,num_2,images/5533.jpg,,,,,,0,28,28,1,,,,,,,,,,,,,,,,,,,,,,,,,,,,,,,,,,,,,,,,,,,,,,,,362.7727819444499,None,362.7727819444499,None,num_2,1,1.8723640219468507,362.7727819444499,None,368.7320001718681,None,,,,,,,,,,,,,,,,,,,,,,,,,,,,,,,,,,,,,,,,,,,,,,,,,,,,,,,717,001,2019_May_06_1117,MAER M R1 P1 v1,3.1.0,59.88159090280656,
,Neutral,sounds/low 4 second.wav,num_1,images/7175.jpg,,,,,,0,29,29,10,,,,,,,,,,,,,,,,,,,,,,,,,,,,,,,,,,,,,,,,,,,,,,,,369.76272614432946,None,369.76272614432946,None,num_1,1,5.059162370208469,369.76272614432946,None,375.73897736536037,None,,,,,,,,,,,,,,,,,,,,,,,,,,,,,,,,,,,,,,,,,,,,,,,,,,,,,,,717,001,2019_May_06_1117,MAER M R1 P1 v1,3.1.0,59.88159090280656,
,Neutral,sounds/low 1 second.wav,num_1,images/2383.jpg,,,,,,0,30,30,0,,,,,,,,,,,,,,,,,,,,,,,,,,,,,,,,,,,,,,,,,,,,,,,,376.7696823049837,None,376.7696823049837,None,num_1,1,1.8723393834789022,376.7696823049837,None,382.72972622154975,None,,,,,,,,,,,,,,,,,,,,,,,,,,,,,,,,,,,,,,,,,,,,,,,,,,,,,,,717,001,2019_May_06_1117,MAER M R1 P1 v1,3.1.0,59.88159090280656,
,Neutral,sounds/high 4 second.wav,num_2,images/7045.jpg,,,,,,0,31,31,15,,,,,,,,,,,,,,,,,,,,,,,,,,,,,,,,,,,,,,,,,,,,,,,,383.7765897896379,None,383.7765897896379,None,num_2,1,4.875890628038178,383.7765897896379,None,389.7196914542683,None,,,,,,,,,,,,,,,,,,,,,,,,,,,,,,,,,,,,,,,,,,,,,,,,,,,,,,,717,001,2019_May_06_1117,MAER M R1 P1 v1,3.1.0,59.88159090280656,
,Pleasant,sounds/low 1 second.wav,num_1,images/8510.jpg,,,,,,0,32,32,24,,,,,,,,,,,,,,,,,,,,,,,,,,,,,,,,,,,,,,,,,,,,,,,,390.75133355708294,None,390.75133355708294,None,num_1,1,1.9215664416842628,390.75133355708294,None,396.72656949294924,None,,,,,,,,,,,,,,,,,,,,,,,,,,,,,,,,,,,,,,,,,,,,,,,,,,,,,,,717,001,2019_May_06_1117,MAER M R1 P1 v1,3.1.0,59.88159090280656,
,Pleasant,sounds/high 4 second.wav,num_2,images/1441.jpg,,,,,,0,33,33,23,,,,,,,,,,,,,,,,,,,,,,,,,,,,,,,,,,,,,,,,,,,,,,,,397.7589693788914,None,397.7589693788914,None,num_2,1,4.874041541059341,397.7589693788914,None,403.716897091429,None,,,,,,,,,,,,,,,,,,,,,,,,,,,,,,,,,,,,,,,,,,,,,,,,,,,,,,,717,001,2019_May_06_1117,MAER M R1 P1 v1,3.1.0,59.88159090280656,
,Unpleasant,sounds/low 4 second.wav,num_1,images/2278.jpg,,,,,,0,34,34,32,,,,,,,,,,,,,,,,,,,,,,,,,,,,,,,,,,,,,,,,,,,,,,,,404.7476693361341,None,404.7476693361341,None,num_1,1,4.959034941253776,404.7476693361341,None,410.70738273666666,None,,,,,,,,,,,,,,,,,,,,,,,,,,,,,,,,,,,,,,,,,,,,,,,,,,,,,,,717,001,2019_May_06_1117,MAER M R1 P1 v1,3.1.0,59.88159090280656,
,Neutral,sounds/high 1 second.wav,num_2,images/2570.jpg,,,,,,0,35,35,5,,,,,,,,,,,,,,,,,,,,,,,,,,,,,,,,,,,,,,,,,,,,,,,,411.73318101552013,None,411.73318101552013,None,num_2,1,1.8940870380920387,411.73318101552013,None,417.6975126264633,None,,,,,,,,,,,,,,,,,,,,,,,,,,,,,,,,,,,,,,,,,,,,,,,,,,,,,,,717,001,2019_May_06_1117,MAER M R1 P1 v1,3.1.0,59.88159090280656,
,Pleasant,sounds/low 4 second.wav,num_1,images/2362.jpg,,,,,,0,36,36,26,,,,,,,,,,,,,,,,,,,,,,,,,,,,,,,,,,,,,,,,,,,,,,,,418.7295994235801,None,418.7295994235801,None,num_1,1,4.8408451114737545,418.7295994235801,None,424.6877618025019,None,,,,,,,,,,,,,,,,,,,,,,,,,,,,,,,,,,,,,,,,,,,,,,,,,,,,,,,717,001,2019_May_06_1117,MAER M R1 P1 v1,3.1.0,59.88159090280656,
,Unpleasant,sounds/high 4 second.wav,num_2,images/2490.jpg,,,,,,0,37,37,33,,,,,,,,,,,,,,,,,,,,,,,,,,,,,,,,,,,,,,,,,,,,,,,,425.716364359675,None,425.716364359675,None,num_2,1,4.761598483713897,425.716364359675,None,431.67812455586954,None,,,,,,,,,,,,,,,,,,,,,,,,,,,,,,,,,,,,,,,,,,,,,,,,,,,,,,,717,001,2019_May_06_1117,MAER M R1 P1 v1,3.1.0,59.88159090280656,
,Unpleasant,sounds/high 1 second.wav,num_2,images/2700.jpg,,,,,,0,38,38,35,,,,,,,,,,,,,,,,,,,,,,,,,,,,,,,,,,,,,,,,,,,,,,,,432.70865161777056,None,432.70865161777056,None,num_2,1,1.8071859594401758,432.70865161777056,None,438.6683908586483,None,,,,,,,,,,,,,,,,,,,,,,,,,,,,,,,,,,,,,,,,,,,,,,,,,,,,,,,717,001,2019_May_06_1117,MAER M R1 P1 v1,3.1.0,59.88159090280656,
,Unpleasant,sounds/low 1 second.wav,num_1,images/9041.jpg,,,,,,0,39,39,38,,,,,,,,,,,,,,,,,,,,,,,,,,,,,,,,,,,,,,,,,,,,,,,,439.6979882690839,None,439.6979882690839,None,num_1,1,1.8905637371644843,439.6979882690839,None,445.6587983819145,None,,,,,,,,,,,,,,,,,,,,,,,,,,,,,,,,,,,,,,,,,,,,,,,,,,,,,,,717,001,2019_May_06_1117,MAER M R1 P1 v1,3.1.0,59.88159090280656,
,,,,,,,,,,,,,,,,,,,,,,,,,,,,,,,,,,,,,,,,,,,,,,,,,,,,,,,,,,,,,,,,,,,,,,,,446.68569577681683,None,space,1.7690062494566519,449.7127172654664,None,,,,,,,,,,,,,,,,,,,,,,,,,,,,,,,,,,,,,,,,,,,,,,,,,717,001,2019_May_06_1117,MAER M R1 P1 v1,3.1.0,59.88159090280656,
,,,,,,,,,,,,,,,,,,,,,,,,,,,,,,,,,,,,,,,,,,,,,,,,,,,,,,,,,,,,,,,,,,,,,,,,,,,,,,451.4980377863967,None,space,3.971210250565491,456.5029468509192,None,,,,,,,,,,,,,,,,,,,,,,,,,,,,,,,,,,,,,,,,,,,717,001,2019_May_06_1117,MAER M R1 P1 v1,3.1.0,59.88159090280656,
,,,,,,,,,,,,,,,,,,,,,,,,,,,,,,,,,,,,,,,,,,,,,,,,,,,,,,,,,,,,,,,,,,,,,,,,,,,,,,,,,,,,460.49021417138556,None,space,2.169137374183265,463.4932398954488,None,,,,,,,,,,,,,,,,,,,,,,,,,,,,,,,,,,,,,717,001,2019_May_06_1117,MAER M R1 P1 v1,3.1.0,59.88159090280656,
,Unpleasant,,,,images/2276.jpg,,,,,,,,,0,0,0,9,,,,,,,,,,,,,,,,,,,,,,,,,465.67855572905955,None,,,,,,,,,,,,,,,,,,,,,,,,,,,,,,,,,,,,,,,,,,,,,,,470.695941172954,476.67315239283107,476.6898569736941,None,num_6,5.78941982116703,476.6898569736941,None,476.6898569736941,None,0,17.363,482.50130628950956,None,482.50130628950956,None,482.50130628950956,None,499.8800590361725,None,,,,,,,,,,,,,,,,,717,001,2019_May_06_1117,MAER M R1 P1 v1,3.1.0,59.88159090280656,
,Unpleasant,,,,images/2205.jpg,,,,,,,,,0,1,1,8,,,,,,,,,,,,,,,,,,,,,,,,,,,,,,,,,,,,,,,,,,,,,,,,,,,,,,,,,,,,,,,,,,,,,,,,,509.9032666702524,515.8786221928303,515.8786221928303,None,num_6,5.088928944760482,515.8786221928303,None,515.8786221928303,None,0,1.976,520.9872498932591,None,520.9872498932591,None,520.9872498932591,None,522.9856889561679,None,,,,,,,,,,,,,,,,,717,001,2019_May_06_1117,MAER M R1 P1 v1,3.1.0,59.88159090280656,
,Neutral,,,,images/2745.jpg,,,,,,,,,0,2,2,3,,,,,,,,,,,,,,,,,,,,,,,,,,,,,,,,,,,,,,,,,,,,,,,,,,,,,,,,,,,,,,,,,,,,,,,,,533.0135108945606,538.9849356800778,538.9849356800778,None,num_5,2.653370407217153,538.9849356800778,None,538.9849356800778,None,0,1.782,541.6543622557901,None,541.6543622557901,None,541.6543622557901,None,543.4561731230979,None,,,,,,,,,,,,,,,,,717,001,2019_May_06_1117,MAER M R1 P1 v1,3.1.0,59.88159090280656,
,Pleasant,,,,images/8380.jpg,,,,,,,,,0,3,3,5,,,,,,,,,,,,,,,,,,,,,,,,,,,,,,,,,,,,,,,,,,,,,,,,,,,,,,,,,,,,,,,,,,,,,,,,,553.4777266746578,559.4389027588777,559.45568245702,None,num_7,4.004811712526134,559.45568245702,None,559.45568245702,None,15,15.877,563.4774526468182,None,563.4774526468182,None,563.4774526468182,None,579.3753045630137,None,,,,,,,,,,,,,,,,,717,001,2019_May_06_1117,MAER M R1 P1 v1,3.1.0,59.88159090280656,
,Unpleasant,,,,images/3350.jpg,,,,,,,,,0,4,4,10,,,,,,,,,,,,,,,,,,,,,,,,,,,,,,,,,,,,,,,,,,,,,,,,,,,,,,,,,,,,,,,,,,,,,,,,,589.3977619256939,595.3579747059093,595.3746807891157,None,num_8,3.0034487845878175,595.3746807891157,None,595.3746807891157,None,-25,6.997,598.3975032217795,None,598.3975032217795,None,598.3975032217795,None,605.4178936573671,None,,,,,,,,,,,,,,,,,717,001,2019_May_06_1117,MAER M R1 P1 v1,3.1.0,59.88159090280656,
,Pleasant,,,,images/2389.jpg,,,,,,,,,0,5,5,7,,,,,,,,,,,,,,,,,,,,,,,,,,,,,,,,,,,,,,,,,,,,,,,,,,,,,,,,,,,,,,,,,,,,,,,,,615.4372633993453,621.4005109176951,621.4174183152163,None,num_5,5.338711329999569,621.4174183152163,None,621.4174183152163,None,-15,5.666,626.774511444718,None,626.774511444718,None,626.774511444718,None,632.4614529665168,None,,,,,,,,,,,,,,,,,717,001,2019_May_06_1117,MAER M R1 P1 v1,3.1.0,59.88159090280656,
,Pleasant,,,,images/1721.jpg,,,,,,,,,0,6,6,4,,,,,,,,,,,,,,,,,,,,,,,,,,,,,,,,,,,,,,,,,,,,,,,,,,,,,,,,,,,,,,,,,,,,,,,,,642.4855791347027,648.4445257380348,648.461140779099,None,num_7,2.452935868772329,648.461140779099,None,648.461140779099,None,10,7.814,650.9338084551409,None,650.9338084551409,None,650.9338084551409,None,658.7712444439503,None,,,,,,,,,,,,,,,,,717,001,2019_May_06_1117,MAER M R1 P1 v1,3.1.0,59.88159090280656,
,Neutral,,,,images/2393.jpg,,,,,,,,,0,7,7,2,,,,,,,,,,,,,,,,,,,,,,,,,,,,,,,,,,,,,,,,,,,,,,,,,,,,,,,,,,,,,,,,,,,,,,,,,668.7819805061636,674.7540272627657,674.770612256917,None,num_5,1.652482520959893,674.770612256917,None,674.770612256917,None,10,5.977,676.4442577195778,None,676.4442577195778,None,676.4442577195778,None,682.444667258992,None,,,,,,,,,,,,,,,,,717,001,2019_May_06_1117,MAER M R1 P1 v1,3.1.0,59.88159090280656,
,Neutral,,,,images/7513.jpg,,,,,,,,,0,8,8,0,,,,,,,,,,,,,,,,,,,,,,,,,,,,,,,,,,,,,,,,,,,,,,,,,,,,,,,,,,,,,,,,,,,,,,,,,692.4766606102103,698.4275513359016,698.4445209305295,None,num_5,3.42041549471287,698.4445209305295,None,698.4445209305295,None,10,4.994,701.884813659567,None,701.884813659567,None,701.884813659567,None,706.9025019763367,None,,,,,,,,,,,,,,,,,717,001,2019_May_06_1117,MAER M R1 P1 v1,3.1.0,59.88159090280656,
,Pleasant,,,,images/1650.jpg,,,,,,,,,0,9,9,6,,,,,,,,,,,,,,,,,,,,,,,,,,,,,,,,,,,,,,,,,,,,,,,,,,,,,,,,,,,,,,,,,,,,,,,,,716.9285235037469,722.8854933207213,722.9021333007231,None,num_5,1.7186410142148816,722.9021333007231,None,722.9021333007231,None,0,1.829,724.639359231568,None,724.639359231568,None,724.639359231568,None,726.488588933903,None,,,,,,,,,,,,,,,,,717,001,2019_May_06_1117,MAER M R1 P1 v1,3.1.0,59.88159090280656,
,Unpleasant,,,,images/3500.jpg,,,,,,,,,0,10,10,11,,,,,,,,,,,,,,,,,,,,,,,,,,,,,,,,,,,,,,,,,,,,,,,,,,,,,,,,,,,,,,,,,,,,,,,,,736.5111166063571,742.4713353959532,742.4878527845531,None,num_7,3.120695141324177,742.4878527845531,None,742.4878527845531,None,-10,7.421,745.6245992868671,None,745.6245992868671,None,745.6245992868671,None,753.0653328041071,None,,,,,,,,,,,,,,,,,717,001,2019_May_06_1117,MAER M R1 P1 v1,3.1.0,59.88159090280656,
,Neutral,,,,images/7180.jpg,,,,,,,,,0,11,11,1,,,,,,,,,,,,,,,,,,,,,,,,,,,,,,,,,,,,,,,,,,,,,,,,,,,,,,,,,,,,,,,,,,,,,,,,,763.0808931985512,769.0479900268283,769.0648006732908,None,num_7,1.485118816006434,769.0648006732908,None,769.0648006732908,None,0,1.409,770.5690966305692,None,770.5690966305692,None,770.5690966305692,None,772.0006496142423,None,,,,,,,,,,,,,,,,,717,001,2019_May_06_1117,MAER M R1 P1 v1,3.1.0,59.88159090280656,
,,,,,,,,,,,,,,,,,,,,,,,,,,,,,,,,,,,,,,,,,,,,,,,,,,,,,,,,,,,,,,,,,,,,,,,,,,,,,,,,,,,,,,,,,,,,,,,,,,,,,,,,,,,,,,782.0110788974825,None,space,3.1204592730628065,785.0304558507205,None,,,,,,,,,,,717,001,2019_May_06_1117,MAER M R1 P1 v1,3.1.0,59.88159090280656,
,,,,,,,,,,,,,,,,,,,,,,,,,,,,,,,,,,,,,,,,,,,,,,,,,,,,,,,,,,,,,,,,,,,,,,,,,,,,,,,,,,,,,,,,,,,,,,,,,,,,,,,,,,,,,,,,,,,,788.531310234669,None,788.531310234669,1688.1653187121055,1688.7823116231366,None,space,19.18667725920568,1693.7871966501307,None,717,001,2019_May_06_1117,MAER M R1 P1 v1,3.1.0,59.88159090280656,
