PracticeImage,ImageCategory,SoundFile,CorrectAns,ReactivityImage1,PictureRatings_1,prac_reac_loop.thisRepN,prac_reac_loop.thisTrialN,prac_reac_loop.thisN,prac_reac_loop.thisIndex,reac_1_loop.thisRepN,reac_1_loop.thisTrialN,reac_1_loop.thisN,reac_1_loop.thisIndex,prt_1_loop.thisRepN,prt_1_loop.thisTrialN,prt_1_loop.thisN,prt_1_loop.thisIndex,slide1_headphones.started,slide1_headphones.stopped,slide1_headphones_resp.keys,slide1_headphones_resp.rt,slide1_headphones_resp.started,slide1_headphones_resp.stopped,reac_info_1.started,reac_info_1.stopped,reac_info_1_resp.keys,reac_info_1_resp.rt,reac_info_1_resp.started,reac_info_1_resp.stopped,reac_info_2.started,reac_info_2.stopped,reac_info_2_resp.keys,reac_info_2_resp.rt,reac_info_2_resp.started,reac_info_2_resp.stopped,reac_info_3.started,reac_info_3.stopped,reac_info_3_resp.keys,reac_info_3_resp.rt,reac_info_3_resp.started,reac_info_3_resp.stopped,blank_5seconds.started,blank_5seconds.stopped,practice_reac_image.started,practice_reac_image.stopped,practice_reac_sound.started,practice_reac_sound.stopped,practice_reac_keys.keys,practice_reac_keys.corr,practice_reac_keys.rt,practice_reac_keys.started,practice_reac_keys.stopped,blank_1second.started,blank_1second.stopped,post_prac_reac_text.started,post_prac_reac_text.stopped,post_prac_reac_resp.keys,post_prac_reac_resp.rt,post_prac_reac_resp.started,post_prac_reac_resp.stopped,reac_1_image.started,reac_1_image.stopped,reac_1_sound.started,reac_1_sound.stopped,reac_1_keys.keys,reac_1_keys.corr,reac_1_keys.rt,reac_1_keys.started,reac_1_keys.stopped,blank2_1second.started,blank2_1second.stopped,postreac1_slide1_text.started,postreac1_slide1_text.stopped,postreac1_slide1_resp.keys,postreac1_slide1_resp.rt,postreac1_slide1_resp.started,postreac1_slide1_resp.stopped,postreac1_slide2_text.started,postreac1_slide2_text.stopped,postreac1_slide2_resp.keys,postreac1_slide2_resp.rt,postreac1_slide2_resp.started,postreac1_slide2_resp.stopped,postreac1_slide3_text.started,postreac1_slide3_text.stopped,postreac1_slide3_resp.keys,postreac1_slide3_resp.rt,postreac1_slide3_resp.started,postreac1_slide3_resp.stopped,prt_1_image.started,prt_1_image.stopped,prt_1_image_intensity.started,prt_1_image_intensity.stopped,prt_1_image_intensity_resp.keys,prt_1_image_intensity_resp.rt,prt_1_image_intensity_resp.started,prt_1_image_intensity_resp.stopped,prt_1_image_intensity_text.started,prt_1_image_intensity_text.stopped,prt_1_vas.response,prt_1_vas.rt,prt_1_vas.started,prt_1_vas.stopped,prt_1_vas_guide.started,prt_1_vas_guide.stopped,prt_1_vas_instructions.started,prt_1_vas_instructions.stopped,blank_10seconds.started,blank_10seconds.stopped,pre_m_text.started,pre_m_text.stopped,pre_m_resp.keys,pre_m_resp.rt,pre_m_resp.started,pre_m_resp.stopped,m_audio_file.started,m_audio_file.stopped,m_inprogress_text.started,m_inprogress_text.stopped,pleasewait_text.started,pleasewait_text.stopped,pleasewait_resp.keys,pleasewait_resp.rt,pleasewait_resp.started,pleasewait_resp.stopped,participant,session,date,expName,psychopyVersion,frameRate,
,,,,,,,,,,,,,,,,,,9.335451645102694,None,space,27.402480437916893,9.335451645102694,None,,,,,,,,,,,,,,,,,,,,,,,,,,,,,,,,,,,,,,,,,,,,,,,,,,,,,,,,,,,,,,,,,,,,,,,,,,,,,,,,,,,,,,,,,,,,,,,,,,,,,,,761,001,2019_May_13_1115,MAER M R1 P1 v1,3.1.0,59.94218528793595,
,,,,,,,,,,,,,,,,,,,,,,,,36.75371185311178,None,space,21.65559045010923,39.75667718911791,None,,,,,,,,,,,,,,,,,,,,,,,,,,,,,,,,,,,,,,,,,,,,,,,,,,,,,,,,,,,,,,,,,,,,,,,,,,,,,,,,,,,,,,,,,,,,,,,,,761,001,2019_May_13_1115,MAER M R1 P1 v1,3.1.0,59.94218528793595,
,,,,,,,,,,,,,,,,,,,,,,,,,,,,,,61.42836951289701,None,space,24.39208087924635,64.43094423822276,None,,,,,,,,,,,,,,,,,,,,,,,,,,,,,,,,,,,,,,,,,,,,,,,,,,,,,,,,,,,,,,,,,,,,,,,,,,,,,,,,,,,,,,,,,,,761,001,2019_May_13_1115,MAER M R1 P1 v1,3.1.0,59.94218528793595,
,,,,,,,,,,,,,,,,,,,,,,,,,,,,,,,,,,,,88.8391979020007,None,space,10.878107833786999,93.84415805670596,None,,,,,,,,,,,,,,,,,,,,,,,,,,,,,,,,,,,,,,,,,,,,,,,,,,,,,,,,,,,,,,,,,,,,,,,,,,,,,,,,,,,,,761,001,2019_May_13_1115,MAER M R1 P1 v1,3.1.0,59.94218528793595,
images/7053.jpg,Neutral,sounds/high 1 second.wav,num_2,,,0,0,0,2,,,,,,,,,,,,,,,,,,,,,,,,,,,,,,,,,104.73830857162102,None,109.81326736219398,None,109.81326736219398,None,['num_2'],0,[2.983775835141387],109.81326736219398,None,115.74919999927897,None,,,,,,,,,,,,,,,,,,,,,,,,,,,,,,,,,,,,,,,,,,,,,,,,,,,,,,,,,,,,,,,,,,,,,,,,761,001,2019_May_13_1115,MAER M R1 P1 v1,3.1.0,59.94218528793595,
images/7041.jpg,Neutral,sounds/low 1 second.wav,num_1,,,0,1,1,0,,,,,,,,,,,,,,,,,,,,,,,,,,,,,,,,,,,116.78768686965213,None,116.78768686965213,None,['num_1'],0,[2.3160869703697244],116.78768686965213,None,122.73965527706059,None,,,,,,,,,,,,,,,,,,,,,,,,,,,,,,,,,,,,,,,,,,,,,,,,,,,,,,,,,,,,,,,,,,,,,,,,761,001,2019_May_13_1115,MAER M R1 P1 v1,3.1.0,59.94218528793595,
images/7042.jpg,Neutral,sounds/low 4 second.wav,num_1,,,0,2,2,1,,,,,,,,,,,,,,,,,,,,,,,,,,,,,,,,,,,123.78036021516073,None,123.78036021516073,None,None,0,,123.78036021516073,None,129.7464975743078,None,,,,,,,,,,,,,,,,,,,,,,,,,,,,,,,,,,,,,,,,,,,,,,,,,,,,,,,,,,,,,,,,,,,,,,,,761,001,2019_May_13_1115,MAER M R1 P1 v1,3.1.0,59.94218528793595,
images/7059.jpg,Neutral,sounds/high 4 second.wav,num_2,,,0,3,3,3,,,,,,,,,,,,,,,,,,,,,,,,,,,,,,,,,,,130.77923104982347,None,130.77923104982347,None,['num_2'],0,[4.789569613133608],130.77923104982347,None,136.7369835000036,None,,,,,,,,,,,,,,,,,,,,,,,,,,,,,,,,,,,,,,,,,,,,,,,,,,,,,,,,,,,,,,,,,,,,,,,,761,001,2019_May_13_1115,MAER M R1 P1 v1,3.1.0,59.94218528793595,
,,,,,,,,,,,,,,,,,,,,,,,,,,,,,,,,,,,,,,,,,,,,,,,,,,,,,,,137.75628958313519,None,space,37.83841277453212,140.77441482013,None,,,,,,,,,,,,,,,,,,,,,,,,,,,,,,,,,,,,,,,,,,,,,,,,,,,,,,,,,,,,,,,,,,761,001,2019_May_13_1115,MAER M R1 P1 v1,3.1.0,59.94218528793595,
,Pleasant,sounds/high 4 second.wav,num_2,images/2311.jpg,,,,,,0,0,0,27,,,,,,,,,,,,,,,,,,,,,,,,,,,,,178.62888590021703,None,,,,,,,,,,,,,,,,,,183.6844184197571,None,183.6844184197571,None,num_2,1,5.172206727998855,183.6844184197571,None,189.6394495153736,None,,,,,,,,,,,,,,,,,,,,,,,,,,,,,,,,,,,,,,,,,,,,,,,,,,,,,,,761,001,2019_May_13_1115,MAER M R1 P1 v1,3.1.0,59.94218528793595,
,Unpleasant,sounds/high 4 second.wav,num_2,images/9008.jpg,,,,,,0,1,1,37,,,,,,,,,,,,,,,,,,,,,,,,,,,,,,,,,,,,,,,,,,,,,,,,190.67850397311213,None,190.67850397311213,None,num_2,1,5.067225300033897,190.67850397311213,None,196.63012533795427,None,,,,,,,,,,,,,,,,,,,,,,,,,,,,,,,,,,,,,,,,,,,,,,,,,,,,,,,761,001,2019_May_13_1115,MAER M R1 P1 v1,3.1.0,59.94218528793595,
,Pleasant,sounds/low 1 second.wav,num_1,images/4150.jpg,,,,,,0,2,2,28,,,,,,,,,,,,,,,,,,,,,,,,,,,,,,,,,,,,,,,,,,,,,,,,197.65013542171891,None,197.65013542171891,None,num_1,1,1.6670095026565832,197.65013542171891,None,203.62030748872803,None,,,,,,,,,,,,,,,,,,,,,,,,,,,,,,,,,,,,,,,,,,,,,,,,,,,,,,,761,001,2019_May_13_1115,MAER M R1 P1 v1,3.1.0,59.94218528793595,
,Neutral,sounds/low 1 second.wav,num_1,images/7056.jpg,,,,,,0,3,3,12,,,,,,,,,,,,,,,,,,,,,,,,,,,,,,,,,,,,,,,,,,,,,,,,204.6434691997465,None,204.6434691997465,None,num_1,1,1.5301557454913564,204.6434691997465,None,210.62757495067763,None,,,,,,,,,,,,,,,,,,,,,,,,,,,,,,,,,,,,,,,,,,,,,,,,,,,,,,,761,001,2019_May_13_1115,MAER M R1 P1 v1,3.1.0,59.94218528793595,
,Pleasant,sounds/high 1 second.wav,num_2,images/2360.jpg,,,,,,0,4,4,21,,,,,,,,,,,,,,,,,,,,,,,,,,,,,,,,,,,,,,,,,,,,,,,,211.664251190311,None,211.664251190311,None,num_2,1,1.500506892474732,211.664251190311,None,217.63451880670345,None,,,,,,,,,,,,,,,,,,,,,,,,,,,,,,,,,,,,,,,,,,,,,,,,,,,,,,,761,001,2019_May_13_1115,MAER M R1 P1 v1,3.1.0,59.94218528793595,
,Neutral,sounds/high 4 second.wav,num_2,images/7045.jpg,,,,,,0,5,5,15,,,,,,,,,,,,,,,,,,,,,,,,,,,,,,,,,,,,,,,,,,,,,,,,218.68287100052203,None,218.68287100052203,None,num_2,1,4.97509556440491,218.68287100052203,None,224.624912788654,None,,,,,,,,,,,,,,,,,,,,,,,,,,,,,,,,,,,,,,,,,,,,,,,,,,,,,,,761,001,2019_May_13_1115,MAER M R1 P1 v1,3.1.0,59.94218528793595,
,Pleasant,sounds/low 4 second.wav,num_1,images/2306.jpg,,,,,,0,6,6,22,,,,,,,,,,,,,,,,,,,,,,,,,,,,,,,,,,,,,,,,,,,,,,,,225.66663331452492,None,225.66663331452492,None,num_1,1,4.514377778217749,225.66663331452492,None,231.61515833854628,None,,,,,,,,,,,,,,,,,,,,,,,,,,,,,,,,,,,,,,,,,,,,,,,,,,,,,,,761,001,2019_May_13_1115,MAER M R1 P1 v1,3.1.0,59.94218528793595,
,Neutral,sounds/low 4 second.wav,num_1,images/7038.jpg,,,,,,0,7,7,6,,,,,,,,,,,,,,,,,,,,,,,,,,,,,,,,,,,,,,,,,,,,,,,,232.6518613199887,None,232.6518613199887,None,num_1,1,4.836439589655129,232.6518613199887,None,238.60548110916625,None,,,,,,,,,,,,,,,,,,,,,,,,,,,,,,,,,,,,,,,,,,,,,,,,,,,,,,,761,001,2019_May_13_1115,MAER M R1 P1 v1,3.1.0,59.94218528793595,
,Pleasant,sounds/high 1 second.wav,num_2,images/1900.jpg,,,,,,0,8,8,29,,,,,,,,,,,,,,,,,,,,,,,,,,,,,,,,,,,,,,,,,,,,,,,,239.6446296139393,None,239.6446296139393,None,num_2,1,1.630912568709391,239.6446296139393,None,245.5958378328678,None,,,,,,,,,,,,,,,,,,,,,,,,,,,,,,,,,,,,,,,,,,,,,,,,,,,,,,,761,001,2019_May_13_1115,MAER M R1 P1 v1,3.1.0,59.94218528793595,
,Neutral,sounds/high 4 second.wav,num_2,images/2190.jpg,,,,,,0,9,9,11,,,,,,,,,,,,,,,,,,,,,,,,,,,,,,,,,,,,,,,,,,,,,,,,246.61534042321819,None,246.61534042321819,None,num_2,1,4.503739947032955,246.61534042321819,None,252.58611222785748,None,,,,,,,,,,,,,,,,,,,,,,,,,,,,,,,,,,,,,,,,,,,,,,,,,,,,,,,761,001,2019_May_13_1115,MAER M R1 P1 v1,3.1.0,59.94218528793595,
,Unpleasant,sounds/low 1 second.wav,num_1,images/9471.jpg,,,,,,0,10,10,34,,,,,,,,,,,,,,,,,,,,,,,,,,,,,,,,,,,,,,,,,,,,,,,,253.6247036617051,None,253.6247036617051,None,num_1,1,1.6650050689258933,253.6247036617051,None,259.576394735529,None,,,,,,,,,,,,,,,,,,,,,,,,,,,,,,,,,,,,,,,,,,,,,,,,,,,,,,,761,001,2019_May_13_1115,MAER M R1 P1 v1,3.1.0,59.94218528793595,
,Neutral,sounds/low 1 second.wav,num_1,images/7170.jpg,,,,,,0,11,11,8,,,,,,,,,,,,,,,,,,,,,,,,,,,,,,,,,,,,,,,,,,,,,,,,260.61271792320167,None,260.61271792320167,None,num_1,1,1.8173579574304313,260.61271792320167,None,266.56695397584645,None,,,,,,,,,,,,,,,,,,,,,,,,,,,,,,,,,,,,,,,,,,,,,,,,,,,,,,,761,001,2019_May_13_1115,MAER M R1 P1 v1,3.1.0,59.94218528793595,
,Unpleasant,sounds/high 1 second.wav,num_2,images/2700.jpg,,,,,,0,12,12,35,,,,,,,,,,,,,,,,,,,,,,,,,,,,,,,,,,,,,,,,,,,,,,,,267.60188899325203,None,267.60188899325203,None,num_2,1,1.9185138044813357,267.60188899325203,None,273.5571863050691,None,,,,,,,,,,,,,,,,,,,,,,,,,,,,,,,,,,,,,,,,,,,,,,,,,,,,,,,761,001,2019_May_13_1115,MAER M R1 P1 v1,3.1.0,59.94218528793595,
,Neutral,sounds/low 4 second.wav,num_1,images/9700.jpg,,,,,,0,13,13,14,,,,,,,,,,,,,,,,,,,,,,,,,,,,,,,,,,,,,,,,,,,,,,,,274.59109191309744,None,274.59109191309744,None,num_1,1,4.489128403345603,274.59109191309744,None,280.5640971094208,None,,,,,,,,,,,,,,,,,,,,,,,,,,,,,,,,,,,,,,,,,,,,,,,,,,,,,,,761,001,2019_May_13_1115,MAER M R1 P1 v1,3.1.0,59.94218528793595,
,Neutral,sounds/low 1 second.wav,num_1,images/2383.jpg,,,,,,0,14,14,0,,,,,,,,,,,,,,,,,,,,,,,,,,,,,,,,,,,,,,,,,,,,,,,,281.6025386088613,None,281.6025386088613,None,num_1,1,1.531253061037205,281.6025386088613,None,287.554668368527,None,,,,,,,,,,,,,,,,,,,,,,,,,,,,,,,,,,,,,,,,,,,,,,,,,,,,,,,761,001,2019_May_13_1115,MAER M R1 P1 v1,3.1.0,59.94218528793595,
,Unpleasant,sounds/high 1 second.wav,num_2,images/9280.jpg,,,,,,0,15,15,31,,,,,,,,,,,,,,,,,,,,,,,,,,,,,,,,,,,,,,,,,,,,,,,,288.59168053334633,None,288.59168053334633,None,num_2,1,1.5329008371700183,288.59168053334633,None,294.54481296058384,None,,,,,,,,,,,,,,,,,,,,,,,,,,,,,,,,,,,,,,,,,,,,,,,,,,,,,,,761,001,2019_May_13_1115,MAER M R1 P1 v1,3.1.0,59.94218528793595,
,Neutral,sounds/low 1 second.wav,num_1,images/7080.jpg,,,,,,0,16,16,16,,,,,,,,,,,,,,,,,,,,,,,,,,,,,,,,,,,,,,,,,,,,,,,,295.58368563412023,None,295.58368563412023,None,num_1,1,1.5144489895501465,295.58368563412023,None,301.55176432835196,None,,,,,,,,,,,,,,,,,,,,,,,,,,,,,,,,,,,,,,,,,,,,,,,,,,,,,,,761,001,2019_May_13_1115,MAER M R1 P1 v1,3.1.0,59.94218528793595,
,Unpleasant,sounds/high 1 second.wav,num_2,images/9561.jpg,,,,,,0,17,17,39,,,,,,,,,,,,,,,,,,,,,,,,,,,,,,,,,,,,,,,,,,,,,,,,302.5734519347543,None,302.5734519347543,None,num_2,1,1.664918834105265,302.5734519347543,None,308.5586255551925,None,,,,,,,,,,,,,,,,,,,,,,,,,,,,,,,,,,,,,,,,,,,,,,,,,,,,,,,761,001,2019_May_13_1115,MAER M R1 P1 v1,3.1.0,59.94218528793595,
,Pleasant,sounds/high 4 second.wav,num_2,images/1441.jpg,,,,,,0,18,18,23,,,,,,,,,,,,,,,,,,,,,,,,,,,,,,,,,,,,,,,,,,,,,,,,309.59980553597507,None,309.59980553597507,None,num_2,1,4.531924310465911,309.59980553597507,None,315.54918990349597,None,,,,,,,,,,,,,,,,,,,,,,,,,,,,,,,,,,,,,,,,,,,,,,,,,,,,,,,761,001,2019_May_13_1115,MAER M R1 P1 v1,3.1.0,59.94218528793595,
,Unpleasant,sounds/low 1 second.wav,num_1,images/6311.jpg,,,,,,0,19,19,30,,,,,,,,,,,,,,,,,,,,,,,,,,,,,,,,,,,,,,,,,,,,,,,,316.58547913808525,None,316.58547913808525,None,num_1,1,1.650792849541176,316.58547913808525,None,322.55629270802,None,,,,,,,,,,,,,,,,,,,,,,,,,,,,,,,,,,,,,,,,,,,,,,,,,,,,,,,761,001,2019_May_13_1115,MAER M R1 P1 v1,3.1.0,59.94218528793595,
,Neutral,sounds/low 4 second.wav,num_1,images/7175.jpg,,,,,,0,20,20,10,,,,,,,,,,,,,,,,,,,,,,,,,,,,,,,,,,,,,,,,,,,,,,,,323.5746925743706,None,323.5746925743706,None,num_1,1,4.571036157929484,323.5746925743706,None,329.5464054502818,None,,,,,,,,,,,,,,,,,,,,,,,,,,,,,,,,,,,,,,,,,,,,,,,,,,,,,,,761,001,2019_May_13_1115,MAER M R1 P1 v1,3.1.0,59.94218528793595,
,Unpleasant,sounds/high 4 second.wav,num_2,images/2490.jpg,,,,,,0,21,21,33,,,,,,,,,,,,,,,,,,,,,,,,,,,,,,,,,,,,,,,,,,,,,,,,330.5826892764153,None,330.5826892764153,None,num_2,1,4.536829178738117,330.5826892764153,None,336.5534448556873,None,,,,,,,,,,,,,,,,,,,,,,,,,,,,,,,,,,,,,,,,,,,,,,,,,,,,,,,761,001,2019_May_13_1115,MAER M R1 P1 v1,3.1.0,59.94218528793595,
,Neutral,sounds/high 1 second.wav,num_2,images/7235.jpg,,,,,,0,22,22,9,,,,,,,,,,,,,,,,,,,,,,,,,,,,,,,,,,,,,,,,,,,,,,,,337.5876482292415,None,337.5876482292415,None,num_2,1,1.619085778705994,337.5876482292415,None,343.5437189502072,None,,,,,,,,,,,,,,,,,,,,,,,,,,,,,,,,,,,,,,,,,,,,,,,,,,,,,,,761,001,2019_May_13_1115,MAER M R1 P1 v1,3.1.0,59.94218528793595,
,Pleasant,sounds/low 4 second.wav,num_1,images/2362.jpg,,,,,,0,23,23,26,,,,,,,,,,,,,,,,,,,,,,,,,,,,,,,,,,,,,,,,,,,,,,,,344.56611145865554,None,344.56611145865554,None,num_1,1,4.533660424707705,344.56611145865554,None,350.5507222992428,None,,,,,,,,,,,,,,,,,,,,,,,,,,,,,,,,,,,,,,,,,,,,,,,,,,,,,,,761,001,2019_May_13_1115,MAER M R1 P1 v1,3.1.0,59.94218528793595,
,Unpleasant,sounds/low 1 second.wav,num_1,images/9041.jpg,,,,,,0,24,24,38,,,,,,,,,,,,,,,,,,,,,,,,,,,,,,,,,,,,,,,,,,,,,,,,351.5870361723528,None,351.5870361723528,None,num_1,1,1.717355914237487,351.5870361723528,None,357.5576484275525,None,,,,,,,,,,,,,,,,,,,,,,,,,,,,,,,,,,,,,,,,,,,,,,,,,,,,,,,761,001,2019_May_13_1115,MAER M R1 P1 v1,3.1.0,59.94218528793595,
,Neutral,sounds/high 1 second.wav,num_2,images/2570.jpg,,,,,,0,25,25,5,,,,,,,,,,,,,,,,,,,,,,,,,,,,,,,,,,,,,,,,,,,,,,,,358.59080646683014,None,358.59080646683014,None,num_2,1,1.536989930056734,358.59080646683014,None,364.56485549508125,None,,,,,,,,,,,,,,,,,,,,,,,,,,,,,,,,,,,,,,,,,,,,,,,,,,,,,,,761,001,2019_May_13_1115,MAER M R1 P1 v1,3.1.0,59.94218528793595,
,Neutral,sounds/high 1 second.wav,num_2,images/5510.jpg,,,,,,0,26,26,13,,,,,,,,,,,,,,,,,,,,,,,,,,,,,,,,,,,,,,,,,,,,,,,,365.5835083569664,None,365.5835083569664,None,num_2,1,2.3355715325342317,365.5835083569664,None,371.5551983971736,None,,,,,,,,,,,,,,,,,,,,,,,,,,,,,,,,,,,,,,,,,,,,,,,,,,,,,,,761,001,2019_May_13_1115,MAER M R1 P1 v1,3.1.0,59.94218528793595,
,Neutral,sounds/low 4 second.wav,num_1,images/2499.jpg,,,,,,0,27,27,18,,,,,,,,,,,,,,,,,,,,,,,,,,,,,,,,,,,,,,,,,,,,,,,,372.58947178018116,None,372.58947178018116,None,num_1,1,4.672018934401422,372.58947178018116,None,378.5621119057532,None,,,,,,,,,,,,,,,,,,,,,,,,,,,,,,,,,,,,,,,,,,,,,,,,,,,,,,,761,001,2019_May_13_1115,MAER M R1 P1 v1,3.1.0,59.94218528793595,
,Unpleasant,sounds/low 4 second.wav,num_1,images/2278.jpg,,,,,,0,28,28,32,,,,,,,,,,,,,,,,,,,,,,,,,,,,,,,,,,,,,,,,,,,,,,,,379.5823175953292,None,379.5823175953292,None,num_1,1,4.602879942502113,379.5823175953292,None,385.5523186950477,None,,,,,,,,,,,,,,,,,,,,,,,,,,,,,,,,,,,,,,,,,,,,,,,,,,,,,,,761,001,2019_May_13_1115,MAER M R1 P1 v1,3.1.0,59.94218528793595,
,Neutral,sounds/high 4 second.wav,num_2,images/7025.jpg,,,,,,0,29,29,19,,,,,,,,,,,,,,,,,,,,,,,,,,,,,,,,,,,,,,,,,,,,,,,,386.5714958766539,None,386.5714958766539,None,num_2,1,4.537326756651964,386.5714958766539,None,392.5427349117608,None,,,,,,,,,,,,,,,,,,,,,,,,,,,,,,,,,,,,,,,,,,,,,,,,,,,,,,,761,001,2019_May_13_1115,MAER M R1 P1 v1,3.1.0,59.94218528793595,
,Unpleasant,sounds/low 4 second.wav,num_1,images/2750.jpg,,,,,,0,30,30,36,,,,,,,,,,,,,,,,,,,,,,,,,,,,,,,,,,,,,,,,,,,,,,,,393.5625770329343,None,393.5625770329343,None,num_1,1,4.5192937638712465,393.5625770329343,None,399.5330186213132,None,,,,,,,,,,,,,,,,,,,,,,,,,,,,,,,,,,,,,,,,,,,,,,,,,,,,,,,761,001,2019_May_13_1115,MAER M R1 P1 v1,3.1.0,59.94218528793595,
,Neutral,sounds/high 1 second.wav,num_2,images/2210.jpg,,,,,,0,31,31,17,,,,,,,,,,,,,,,,,,,,,,,,,,,,,,,,,,,,,,,,,,,,,,,,400.56963687028383,None,400.56963687028383,None,num_2,1,1.6169097767451603,400.56963687028383,None,406.5400132567256,None,,,,,,,,,,,,,,,,,,,,,,,,,,,,,,,,,,,,,,,,,,,,,,,,,,,,,,,761,001,2019_May_13_1115,MAER M R1 P1 v1,3.1.0,59.94218528793595,
,Pleasant,sounds/low 1 second.wav,num_1,images/1605.jpg,,,,,,0,32,32,20,,,,,,,,,,,,,,,,,,,,,,,,,,,,,,,,,,,,,,,,,,,,,,,,407.58134587614313,None,407.58134587614313,None,num_1,1,1.6621710382023593,407.58134587614313,None,413.5303417362711,None,,,,,,,,,,,,,,,,,,,,,,,,,,,,,,,,,,,,,,,,,,,,,,,,,,,,,,,761,001,2019_May_13_1115,MAER M R1 P1 v1,3.1.0,59.94218528793595,
,Pleasant,sounds/high 1 second.wav,num_2,images/2391.jpg,,,,,,0,33,33,25,,,,,,,,,,,,,,,,,,,,,,,,,,,,,,,,,,,,,,,,,,,,,,,,414.5489348046749,None,414.5489348046749,None,num_2,1,1.7509370149291499,414.5489348046749,None,420.5206894458797,None,,,,,,,,,,,,,,,,,,,,,,,,,,,,,,,,,,,,,,,,,,,,,,,,,,,,,,,761,001,2019_May_13_1115,MAER M R1 P1 v1,3.1.0,59.94218528793595,
,Neutral,sounds/high 4 second.wav,num_2,images/7031.jpg,,,,,,0,34,34,3,,,,,,,,,,,,,,,,,,,,,,,,,,,,,,,,,,,,,,,,,,,,,,,,421.5555466416199,None,421.5555466416199,None,num_2,1,4.604814667251048,421.5555466416199,None,427.51109875178827,None,,,,,,,,,,,,,,,,,,,,,,,,,,,,,,,,,,,,,,,,,,,,,,,,,,,,,,,761,001,2019_May_13_1115,MAER M R1 P1 v1,3.1.0,59.94218528793595,
,Pleasant,sounds/low 1 second.wav,num_1,images/8510.jpg,,,,,,0,35,35,24,,,,,,,,,,,,,,,,,,,,,,,,,,,,,,,,,,,,,,,,,,,,,,,,428.5476187471495,None,428.5476187471495,None,num_1,1,2.1174743594128813,428.5476187471495,None,434.518004448154,None,,,,,,,,,,,,,,,,,,,,,,,,,,,,,,,,,,,,,,,,,,,,,,,,,,,,,,,761,001,2019_May_13_1115,MAER M R1 P1 v1,3.1.0,59.94218528793595,
,Neutral,sounds/low 4 second.wav,num_1,images/5520.jpg,,,,,,0,36,36,2,,,,,,,,,,,,,,,,,,,,,,,,,,,,,,,,,,,,,,,,,,,,,,,,435.5524430895266,None,435.5524430895266,None,num_1,1,4.50564943232348,435.5524430895266,None,441.5084471062064,None,,,,,,,,,,,,,,,,,,,,,,,,,,,,,,,,,,,,,,,,,,,,,,,,,,,,,,,761,001,2019_May_13_1115,MAER M R1 P1 v1,3.1.0,59.94218528793595,
,Neutral,sounds/low 1 second.wav,num_1,images/2512.jpg,,,,,,0,37,37,4,,,,,,,,,,,,,,,,,,,,,,,,,,,,,,,,,,,,,,,,,,,,,,,,442.52755698258716,None,442.52755698258716,None,num_1,1,1.6341375105839688,442.52755698258716,None,448.5154005772629,None,,,,,,,,,,,,,,,,,,,,,,,,,,,,,,,,,,,,,,,,,,,,,,,,,,,,,,,761,001,2019_May_13_1115,MAER M R1 P1 v1,3.1.0,59.94218528793595,
,Neutral,sounds/high 4 second.wav,num_2,images/5530.jpg,,,,,,0,38,38,7,,,,,,,,,,,,,,,,,,,,,,,,,,,,,,,,,,,,,,,,,,,,,,,,449.5517781499593,None,449.5517781499593,None,num_2,1,4.503152829132887,449.5517781499593,None,455.50576901928525,None,,,,,,,,,,,,,,,,,,,,,,,,,,,,,,,,,,,,,,,,,,,,,,,,,,,,,,,761,001,2019_May_13_1115,MAER M R1 P1 v1,3.1.0,59.94218528793595,
,Neutral,sounds/high 1 second.wav,num_2,images/5533.jpg,,,,,,0,39,39,1,,,,,,,,,,,,,,,,,,,,,,,,,,,,,,,,,,,,,,,,,,,,,,,,456.5244816746499,None,456.5244816746499,None,num_2,1,1.71799260964508,456.5244816746499,None,462.49623902008443,None,,,,,,,,,,,,,,,,,,,,,,,,,,,,,,,,,,,,,,,,,,,,,,,,,,,,,,,761,001,2019_May_13_1115,MAER M R1 P1 v1,3.1.0,59.94218528793595,
,,,,,,,,,,,,,,,,,,,,,,,,,,,,,,,,,,,,,,,,,,,,,,,,,,,,,,,,,,,,,,,,,,,,,,,,463.52701944219643,None,space,2.3699119202956354,466.55000147230294,None,,,,,,,,,,,,,,,,,,,,,,,,,,,,,,,,,,,,,,,,,,,,,,,,,761,001,2019_May_13_1115,MAER M R1 P1 v1,3.1.0,59.94218528793595,
,,,,,,,,,,,,,,,,,,,,,,,,,,,,,,,,,,,,,,,,,,,,,,,,,,,,,,,,,,,,,,,,,,,,,,,,,,,,,,468.935899284942,None,space,7.208302760534934,473.940799345698,None,,,,,,,,,,,,,,,,,,,,,,,,,,,,,,,,,,,,,,,,,,,761,001,2019_May_13_1115,MAER M R1 P1 v1,3.1.0,59.94218528793595,
,,,,,,,,,,,,,,,,,,,,,,,,,,,,,,,,,,,,,,,,,,,,,,,,,,,,,,,,,,,,,,,,,,,,,,,,,,,,,,,,,,,,481.16485393263883,None,space,29.32941190256861,484.16783038602534,None,,,,,,,,,,,,,,,,,,,,,,,,,,,,,,,,,,,,,761,001,2019_May_13_1115,MAER M R1 P1 v1,3.1.0,59.94218528793595,
,Unpleasant,,,,images/2205.jpg,,,,,,,,,0,0,0,8,,,,,,,,,,,,,,,,,,,,,,,,,513.5137759373001,None,,,,,,,,,,,,,,,,,,,,,,,,,,,,,,,,,,,,,,,,,,,,,,,518.543893523135,524.524735271124,524.524735271124,None,num_5,5.355030554768746,524.524735271124,None,524.524735271124,None,0,12.128,529.8965086015478,None,529.8965086015478,None,529.8965086015478,None,542.0417559813022,None,,,,,,,,,,,,,,,,,761,001,2019_May_13_1115,MAER M R1 P1 v1,3.1.0,59.94218528793595,
,Pleasant,,,,images/1650.jpg,,,,,,,,,0,1,1,6,,,,,,,,,,,,,,,,,,,,,,,,,,,,,,,,,,,,,,,,,,,,,,,,,,,,,,,,,,,,,,,,,,,,,,,,,552.0743848933425,558.0415309294558,558.0415309294558,None,num_1,4.5385286356686265,558.0415309294558,None,558.0415309294558,None,0,6.183,562.5959883682144,None,562.5959883682144,None,562.5959883682144,None,568.8019357463463,None,,,,,,,,,,,,,,,,,761,001,2019_May_13_1115,MAER M R1 P1 v1,3.1.0,59.94218528793595,
,Unpleasant,,,,images/3350.jpg,,,,,,,,,0,2,2,10,,,,,,,,,,,,,,,,,,,,,,,,,,,,,,,,,,,,,,,,,,,,,,,,,,,,,,,,,,,,,,,,,,,,,,,,,578.8113990412612,584.7849426793846,584.8015875019,None,num_6,4.070612796043861,584.8015875019,None,584.8015875019,None,-10,6.603,588.8888406134147,None,588.8888406134147,None,588.8888406134147,None,595.5119983582345,None,,,,,,,,,,,,,,,,,761,001,2019_May_13_1115,MAER M R1 P1 v1,3.1.0,59.94218528793595,
,Pleasant,,,,images/2389.jpg,,,,,,,,,0,3,3,7,,,,,,,,,,,,,,,,,,,,,,,,,,,,,,,,,,,,,,,,,,,,,,,,,,,,,,,,,,,,,,,,,,,,,,,,,605.539124166723,611.4953859864518,611.5116236724507,None,num_6,2.670818858203347,611.5116236724507,None,611.5116236724507,None,5,6.339,614.2092843952241,None,614.2092843952241,None,614.2092843952241,None,620.570331556356,None,,,,,,,,,,,,,,,,,761,001,2019_May_13_1115,MAER M R1 P1 v1,3.1.0,59.94218528793595,
,Unpleasant,,,,images/3500.jpg,,,,,,,,,0,4,4,11,,,,,,,,,,,,,,,,,,,,,,,,,,,,,,,,,,,,,,,,,,,,,,,,,,,,,,,,,,,,,,,,,,,,,,,,,630.5829455771154,636.5533607241568,636.5700103541885,None,num_6,3.587754896005208,636.5700103541885,None,636.5700103541885,None,-5,5.557,640.1827829628846,None,640.1827829628846,None,640.1827829628846,None,645.7621817950194,None,,,,,,,,,,,,,,,,,761,001,2019_May_13_1115,MAER M R1 P1 v1,3.1.0,59.94218528793595,
,Neutral,,,,images/7180.jpg,,,,,,,,,0,5,5,1,,,,,,,,,,,,,,,,,,,,,,,,,,,,,,,,,,,,,,,,,,,,,,,,,,,,,,,,,,,,,,,,,,,,,,,,,655.7716667237555,661.7452178736248,661.7619504333079,None,num_1,2.3359369037552824,661.7619504333079,None,661.7619504333079,None,0,5.792,664.1223197346744,None,664.1223197346744,None,664.1223197346744,None,669.9363680177585,None,,,,,,,,,,,,,,,,,761,001,2019_May_13_1115,MAER M R1 P1 v1,3.1.0,59.94218528793595,
,Pleasant,,,,images/8380.jpg,,,,,,,,,0,6,6,5,,,,,,,,,,,,,,,,,,,,,,,,,,,,,,,,,,,,,,,,,,,,,,,,,,,,,,,,,,,,,,,,,,,,,,,,,679.9660928896237,685.9194485658891,685.9360957921626,None,num_6,3.1702049984942278,685.9360957921626,None,685.9360957921626,None,5,6.525,689.1310405688264,None,689.1310405688264,None,689.1310405688264,None,695.6787692879052,None,,,,,,,,,,,,,,,,,761,001,2019_May_13_1115,MAER M R1 P1 v1,3.1.0,59.94218528793595,
,Neutral,,,,images/2745.jpg,,,,,,,,,0,7,7,3,,,,,,,,,,,,,,,,,,,,,,,,,,,,,,,,,,,,,,,,,,,,,,,,,,,,,,,,,,,,,,,,,,,,,,,,,705.7094445456032,711.6617675073221,711.6787040859681,None,num_1,2.2357185223390843,711.6787040859681,None,711.6787040859681,None,0,3.291,713.939612189698,None,713.939612189698,None,713.939612189698,None,717.2505605263277,None,,,,,,,,,,,,,,,,,761,001,2019_May_13_1115,MAER M R1 P1 v1,3.1.0,59.94218528793595,
,Neutral,,,,images/7513.jpg,,,,,,,,,0,8,8,0,,,,,,,,,,,,,,,,,,,,,,,,,,,,,,,,,,,,,,,,,,,,,,,,,,,,,,,,,,,,,,,,,,,,,,,,,727.2721955505249,733.2333628394636,733.2501651081302,None,num_1,2.5866110076494806,733.2501651081302,None,733.2501651081302,None,0,2.103,735.8618142604146,None,735.8618142604146,None,735.8618142604146,None,737.9878859609116,None,,,,,,,,,,,,,,,,,761,001,2019_May_13_1115,MAER M R1 P1 v1,3.1.0,59.94218528793595,
,Unpleasant,,,,images/2276.jpg,,,,,,,,,0,9,9,9,,,,,,,,,,,,,,,,,,,,,,,,,,,,,,,,,,,,,,,,,,,,,,,,,,,,,,,,,,,,,,,,,,,,,,,,,748.0132849697229,753.9707672975937,753.9875091718395,None,num_6,5.054850453199833,753.9875091718395,None,753.9875091718395,None,-5,6.22,759.0591832270575,None,759.0591832270575,None,759.0591832270575,None,765.2980741090623,None,,,,,,,,,,,,,,,,,761,001,2019_May_13_1115,MAER M R1 P1 v1,3.1.0,59.94218528793595,
,Pleasant,,,,images/1721.jpg,,,,,,,,,0,10,10,4,,,,,,,,,,,,,,,,,,,,,,,,,,,,,,,,,,,,,,,,,,,,,,,,,,,,,,,,,,,,,,,,,,,,,,,,,775.326009984009,781.2982955552716,781.2982955552716,None,num_6,1.6192828868661309,781.2982955552716,None,781.2982955552716,None,5,5.323,782.9421857131447,None,782.9421857131447,None,782.9421857131447,None,788.2880315084612,None,,,,,,,,,,,,,,,,,761,001,2019_May_13_1115,MAER M R1 P1 v1,3.1.0,59.94218528793595,
,Neutral,,,,images/2393.jpg,,,,,,,,,0,11,11,2,,,,,,,,,,,,,,,,,,,,,,,,,,,,,,,,,,,,,,,,,,,,,,,,,,,,,,,,,,,,,,,,,,,,,,,,,798.3177031971782,804.287838306408,804.287838306408,None,num_1,2.5700683448503696,804.287838306408,None,804.287838306408,None,0,3.671,806.8833804770375,None,806.8833804770375,None,806.8833804770375,None,810.5768403321754,None,,,,,,,,,,,,,,,,,761,001,2019_May_13_1115,MAER M R1 P1 v1,3.1.0,59.94218528793595,
,,,,,,,,,,,,,,,,,,,,,,,,,,,,,,,,,,,,,,,,,,,,,,,,,,,,,,,,,,,,,,,,,,,,,,,,,,,,,,,,,,,,,,,,,,,,,,,,,,,,,,,,,,,,,,820.5879258632949,None,space,4.204756616492887,823.6071898806595,None,,,,,,,,,,,761,001,2019_May_13_1115,MAER M R1 P1 v1,3.1.0,59.94218528793595,
,,,,,,,,,,,,,,,,,,,,,,,,,,,,,,,,,,,,,,,,,,,,,,,,,,,,,,,,,,,,,,,,,,,,,,,,,,,,,,,,,,,,,,,,,,,,,,,,,,,,,,,,,,,,,,,,,,,,828.2012080686955,None,828.2012080686955,1727.828203713686,1728.4619980878115,None,space,15.984076304894188,1733.466686016919,None,761,001,2019_May_13_1115,MAER M R1 P1 v1,3.1.0,59.94218528793595,
