PracticeImage,ImageCategory,SoundFile,CorrectAns,ReactivityImage1,PictureRatings_1,prac_reac_loop.thisRepN,prac_reac_loop.thisTrialN,prac_reac_loop.thisN,prac_reac_loop.thisIndex,reac_1_loop.thisRepN,reac_1_loop.thisTrialN,reac_1_loop.thisN,reac_1_loop.thisIndex,prt_1_loop.thisRepN,prt_1_loop.thisTrialN,prt_1_loop.thisN,prt_1_loop.thisIndex,slide1_headphones.started,slide1_headphones.stopped,slide1_headphones_resp.keys,slide1_headphones_resp.rt,slide1_headphones_resp.started,slide1_headphones_resp.stopped,reac_info_1.started,reac_info_1.stopped,reac_info_1_resp.keys,reac_info_1_resp.rt,reac_info_1_resp.started,reac_info_1_resp.stopped,reac_info_2.started,reac_info_2.stopped,reac_info_2_resp.keys,reac_info_2_resp.rt,reac_info_2_resp.started,reac_info_2_resp.stopped,reac_info_3.started,reac_info_3.stopped,reac_info_3_resp.keys,reac_info_3_resp.rt,reac_info_3_resp.started,reac_info_3_resp.stopped,blank_5seconds.started,blank_5seconds.stopped,practice_reac_image.started,practice_reac_image.stopped,practice_reac_sound.started,practice_reac_sound.stopped,practice_reac_keys.keys,practice_reac_keys.corr,practice_reac_keys.rt,practice_reac_keys.started,practice_reac_keys.stopped,blank_1second.started,blank_1second.stopped,post_prac_reac_text.started,post_prac_reac_text.stopped,post_prac_reac_resp.keys,post_prac_reac_resp.rt,post_prac_reac_resp.started,post_prac_reac_resp.stopped,reac_1_image.started,reac_1_image.stopped,reac_1_sound.started,reac_1_sound.stopped,reac_1_keys.keys,reac_1_keys.corr,reac_1_keys.rt,reac_1_keys.started,reac_1_keys.stopped,blank2_1second.started,blank2_1second.stopped,postreac1_slide1_text.started,postreac1_slide1_text.stopped,postreac1_slide1_resp.keys,postreac1_slide1_resp.rt,postreac1_slide1_resp.started,postreac1_slide1_resp.stopped,postreac1_slide2_text.started,postreac1_slide2_text.stopped,postreac1_slide2_resp.keys,postreac1_slide2_resp.rt,postreac1_slide2_resp.started,postreac1_slide2_resp.stopped,postreac1_slide3_text.started,postreac1_slide3_text.stopped,postreac1_slide3_resp.keys,postreac1_slide3_resp.rt,postreac1_slide3_resp.started,postreac1_slide3_resp.stopped,prt_1_image.started,prt_1_image.stopped,prt_1_image_intensity.started,prt_1_image_intensity.stopped,prt_1_image_intensity_resp.keys,prt_1_image_intensity_resp.rt,prt_1_image_intensity_resp.started,prt_1_image_intensity_resp.stopped,prt_1_image_intensity_text.started,prt_1_image_intensity_text.stopped,prt_1_vas.response,prt_1_vas.rt,prt_1_vas.started,prt_1_vas.stopped,prt_1_vas_guide.started,prt_1_vas_guide.stopped,prt_1_vas_instructions.started,prt_1_vas_instructions.stopped,blank_10seconds.started,blank_10seconds.stopped,pre_m_text.started,pre_m_text.stopped,pre_m_resp.keys,pre_m_resp.rt,pre_m_resp.started,pre_m_resp.stopped,m_audio_file.started,m_audio_file.stopped,m_inprogress_text.started,m_inprogress_text.stopped,pleasewait_text.started,pleasewait_text.stopped,pleasewait_resp.keys,pleasewait_resp.rt,pleasewait_resp.started,pleasewait_resp.stopped,participant,session,date,expName,psychopyVersion,frameRate,
,,,,,,,,,,,,,,,,,,10.44405430198185,None,space,21.714849093889825,10.44405430198185,None,,,,,,,,,,,,,,,,,,,,,,,,,,,,,,,,,,,,,,,,,,,,,,,,,,,,,,,,,,,,,,,,,,,,,,,,,,,,,,,,,,,,,,,,,,,,,,,,,,,,,,,779,001,2019_May_06_1025,MAER M R1 P1 v1,3.1.0,59.94943763543904,
,,,,,,,,,,,,,,,,,,,,,,,,32.17475374301921,None,space,13.997411458510214,35.17786149515268,None,,,,,,,,,,,,,,,,,,,,,,,,,,,,,,,,,,,,,,,,,,,,,,,,,,,,,,,,,,,,,,,,,,,,,,,,,,,,,,,,,,,,,,,,,,,,,,,,,779,001,2019_May_06_1025,MAER M R1 P1 v1,3.1.0,59.94943763543904,
,,,,,,,,,,,,,,,,,,,,,,,,,,,,,,49.19183210746996,None,space,23.825056060026327,52.19471931526732,None,,,,,,,,,,,,,,,,,,,,,,,,,,,,,,,,,,,,,,,,,,,,,,,,,,,,,,,,,,,,,,,,,,,,,,,,,,,,,,,,,,,,,,,,,,,779,001,2019_May_06_1025,MAER M R1 P1 v1,3.1.0,59.94943763543904,
,,,,,,,,,,,,,,,,,,,,,,,,,,,,,,,,,,,,76.03518763846023,None,space,13.28051466755096,81.04024753848171,None,,,,,,,,,,,,,,,,,,,,,,,,,,,,,,,,,,,,,,,,,,,,,,,,,,,,,,,,,,,,,,,,,,,,,,,,,,,,,,,,,,,,,779,001,2019_May_06_1025,MAER M R1 P1 v1,3.1.0,59.94943763543904,
images/7059.jpg,Neutral,sounds/high 4 second.wav,num_2,,,0,0,0,3,,,,,,,,,,,,,,,,,,,,,,,,,,,,,,,,,94.33691993309185,None,99.39221105912657,None,99.39221105912657,None,"['num_1', 'num_1']",0,"[1.1183166277505734, 5.339856417825104]",99.39221105912657,None,105.3478945677889,None,,,,,,,,,,,,,,,,,,,,,,,,,,,,,,,,,,,,,,,,,,,,,,,,,,,,,,,,,,,,,,,,,,,,,,,,779,001,2019_May_06_1025,MAER M R1 P1 v1,3.1.0,59.94943763543904,
images/7042.jpg,Neutral,sounds/low 4 second.wav,num_1,,,0,1,1,1,,,,,,,,,,,,,,,,,,,,,,,,,,,,,,,,,,,106.3927792462373,None,106.3927792462373,None,['num_1'],0,[5.1618867537890765],106.3927792462373,None,112.33816267338261,None,,,,,,,,,,,,,,,,,,,,,,,,,,,,,,,,,,,,,,,,,,,,,,,,,,,,,,,,,,,,,,,,,,,,,,,,779,001,2019_May_06_1025,MAER M R1 P1 v1,3.1.0,59.94943763543904,
images/7041.jpg,Neutral,sounds/low 1 second.wav,num_1,,,0,2,2,0,,,,,,,,,,,,,,,,,,,,,,,,,,,,,,,,,,,113.37964303667377,None,113.37964303667377,None,['num_1'],0,[1.9455453800019313],113.37964303667377,None,119.3287522809369,None,,,,,,,,,,,,,,,,,,,,,,,,,,,,,,,,,,,,,,,,,,,,,,,,,,,,,,,,,,,,,,,,,,,,,,,,779,001,2019_May_06_1025,MAER M R1 P1 v1,3.1.0,59.94943763543904,
images/7053.jpg,Neutral,sounds/high 1 second.wav,num_2,,,0,3,3,2,,,,,,,,,,,,,,,,,,,,,,,,,,,,,,,,,,,120.37056947011388,None,120.37056947011388,None,['num_2'],0,[1.7282662420839188],120.37056947011388,None,126.33544192547834,None,,,,,,,,,,,,,,,,,,,,,,,,,,,,,,,,,,,,,,,,,,,,,,,,,,,,,,,,,,,,,,,,,,,,,,,,779,001,2019_May_06_1025,MAER M R1 P1 v1,3.1.0,59.94943763543904,
,,,,,,,,,,,,,,,,,,,,,,,,,,,,,,,,,,,,,,,,,,,,,,,,,,,,,,,127.35225016818822,None,space,43.827919230294356,130.37280766460663,None,,,,,,,,,,,,,,,,,,,,,,,,,,,,,,,,,,,,,,,,,,,,,,,,,,,,,,,,,,,,,,,,,,779,001,2019_May_06_1025,MAER M R1 P1 v1,3.1.0,59.94943763543904,
,Pleasant,sounds/low 1 second.wav,num_1,images/1605.jpg,,,,,,0,0,0,20,,,,,,,,,,,,,,,,,,,,,,,,,,,,,174.21650723274252,None,,,,,,,,,,,,,,,,,,179.27527208230276,None,179.27527208230276,None,num_1,1,2.299336654318722,179.27527208230276,None,185.2276251912117,None,,,,,,,,,,,,,,,,,,,,,,,,,,,,,,,,,,,,,,,,,,,,,,,,,,,,,,,779,001,2019_May_06_1025,MAER M R1 P1 v1,3.1.0,59.94943763543904,
,Neutral,sounds/high 1 second.wav,num_2,images/2210.jpg,,,,,,0,1,1,17,,,,,,,,,,,,,,,,,,,,,,,,,,,,,,,,,,,,,,,,,,,,,,,,186.26735532186467,None,186.26735532186467,None,num_2,1,1.7467907644204388,186.26735532186467,None,192.21782719359726,None,,,,,,,,,,,,,,,,,,,,,,,,,,,,,,,,,,,,,,,,,,,,,,,,,,,,,,,779,001,2019_May_06_1025,MAER M R1 P1 v1,3.1.0,59.94943763543904,
,Neutral,sounds/low 4 second.wav,num_1,images/7038.jpg,,,,,,0,2,2,6,,,,,,,,,,,,,,,,,,,,,,,,,,,,,,,,,,,,,,,,,,,,,,,,193.2626665012085,None,193.2626665012085,None,num_1,1,4.594826402461877,193.2626665012085,None,199.20824042577715,None,,,,,,,,,,,,,,,,,,,,,,,,,,,,,,,,,,,,,,,,,,,,,,,,,,,,,,,779,001,2019_May_06_1025,MAER M R1 P1 v1,3.1.0,59.94943763543904,
,Pleasant,sounds/low 4 second.wav,num_1,images/2306.jpg,,,,,,0,3,3,22,,,,,,,,,,,,,,,,,,,,,,,,,,,,,,,,,,,,,,,,,,,,,,,,200.25541527987662,None,200.25541527987662,None,num_1,1,4.676484294929651,200.25541527987662,None,206.21512898087803,None,,,,,,,,,,,,,,,,,,,,,,,,,,,,,,,,,,,,,,,,,,,,,,,,,,,,,,,779,001,2019_May_06_1025,MAER M R1 P1 v1,3.1.0,59.94943763543904,
,Neutral,sounds/low 1 second.wav,num_1,images/7056.jpg,,,,,,0,4,4,12,,,,,,,,,,,,,,,,,,,,,,,,,,,,,,,,,,,,,,,,,,,,,,,,207.26332242530316,None,207.26332242530316,None,num_1,1,1.58940593949319,207.26332242530316,None,213.22174170532526,None,,,,,,,,,,,,,,,,,,,,,,,,,,,,,,,,,,,,,,,,,,,,,,,,,,,,,,,779,001,2019_May_06_1025,MAER M R1 P1 v1,3.1.0,59.94943763543904,
,Unpleasant,sounds/high 4 second.wav,num_2,images/2490.jpg,,,,,,0,5,5,33,,,,,,,,,,,,,,,,,,,,,,,,,,,,,,,,,,,,,,,,,,,,,,,,214.2598874622954,None,214.2598874622954,None,num_2,1,4.651987347845534,214.2598874622954,None,220.2124271625289,None,,,,,,,,,,,,,,,,,,,,,,,,,,,,,,,,,,,,,,,,,,,,,,,,,,,,,,,779,001,2019_May_06_1025,MAER M R1 P1 v1,3.1.0,59.94943763543904,
,Pleasant,sounds/high 1 second.wav,num_2,images/1900.jpg,,,,,,0,6,6,29,,,,,,,,,,,,,,,,,,,,,,,,,,,,,,,,,,,,,,,,,,,,,,,,221.251358045316,None,221.251358045316,None,num_2,1,1.6479899066407597,221.251358045316,None,227.2027896154268,None,,,,,,,,,,,,,,,,,,,,,,,,,,,,,,,,,,,,,,,,,,,,,,,,,,,,,,,779,001,2019_May_06_1025,MAER M R1 P1 v1,3.1.0,59.94943763543904,
,Neutral,sounds/high 4 second.wav,num_2,images/7045.jpg,,,,,,0,7,7,15,,,,,,,,,,,,,,,,,,,,,,,,,,,,,,,,,,,,,,,,,,,,,,,,228.23622581937252,None,228.23622581937252,None,num_2,1,5.27370904192685,228.23622581937252,None,234.209812480226,None,,,,,,,,,,,,,,,,,,,,,,,,,,,,,,,,,,,,,,,,,,,,,,,,,,,,,,,779,001,2019_May_06_1025,MAER M R1 P1 v1,3.1.0,59.94943763543904,
,Neutral,sounds/high 1 second.wav,num_2,images/5533.jpg,,,,,,0,8,8,1,,,,,,,,,,,,,,,,,,,,,,,,,,,,,,,,,,,,,,,,,,,,,,,,235.25042358634528,None,235.25042358634528,None,num_2,1,1.762836416497521,235.25042358634528,None,241.20014518667995,None,,,,,,,,,,,,,,,,,,,,,,,,,,,,,,,,,,,,,,,,,,,,,,,,,,,,,,,779,001,2019_May_06_1025,MAER M R1 P1 v1,3.1.0,59.94943763543904,
,Neutral,sounds/low 4 second.wav,num_1,images/9700.jpg,,,,,,0,9,9,14,,,,,,,,,,,,,,,,,,,,,,,,,,,,,,,,,,,,,,,,,,,,,,,,242.22439364579986,None,242.22439364579986,None,num_1,1,4.547760618654138,242.22439364579986,None,248.19045776170333,None,,,,,,,,,,,,,,,,,,,,,,,,,,,,,,,,,,,,,,,,,,,,,,,,,,,,,,,779,001,2019_May_06_1025,MAER M R1 P1 v1,3.1.0,59.94943763543904,
,Unpleasant,sounds/high 4 second.wav,num_2,images/9008.jpg,,,,,,0,10,10,37,,,,,,,,,,,,,,,,,,,,,,,,,,,,,,,,,,,,,,,,,,,,,,,,249.22754646830163,None,249.22754646830163,None,num_2,1,4.619268063227537,249.22754646830163,None,255.18083493758877,None,,,,,,,,,,,,,,,,,,,,,,,,,,,,,,,,,,,,,,,,,,,,,,,,,,,,,,,779,001,2019_May_06_1025,MAER M R1 P1 v1,3.1.0,59.94943763543904,
,Neutral,sounds/high 1 second.wav,num_2,images/5510.jpg,,,,,,0,11,11,13,,,,,,,,,,,,,,,,,,,,,,,,,,,,,,,,,,,,,,,,,,,,,,,,256.2192700463238,None,256.2192700463238,None,num_2,1,1.7481344623365658,256.2192700463238,None,262.17127461105065,None,,,,,,,,,,,,,,,,,,,,,,,,,,,,,,,,,,,,,,,,,,,,,,,,,,,,,,,779,001,2019_May_06_1025,MAER M R1 P1 v1,3.1.0,59.94943763543904,
,Neutral,sounds/high 4 second.wav,num_2,images/5530.jpg,,,,,,0,12,12,7,,,,,,,,,,,,,,,,,,,,,,,,,,,,,,,,,,,,,,,,,,,,,,,,263.2124223550236,None,263.2124223550236,None,num_2,1,4.648410262943798,263.2124223550236,None,269.16136363704663,None,,,,,,,,,,,,,,,,,,,,,,,,,,,,,,,,,,,,,,,,,,,,,,,,,,,,,,,779,001,2019_May_06_1025,MAER M R1 P1 v1,3.1.0,59.94943763543904,
,Pleasant,sounds/low 1 second.wav,num_1,images/4150.jpg,,,,,,0,13,13,28,,,,,,,,,,,,,,,,,,,,,,,,,,,,,,,,,,,,,,,,,,,,,,,,270.2004913271094,None,270.2004913271094,None,num_1,1,1.8316300239566772,270.2004913271094,None,276.16838560043834,None,,,,,,,,,,,,,,,,,,,,,,,,,,,,,,,,,,,,,,,,,,,,,,,,,,,,,,,779,001,2019_May_06_1025,MAER M R1 P1 v1,3.1.0,59.94943763543904,
,Neutral,sounds/low 1 second.wav,num_1,images/2512.jpg,,,,,,0,14,14,4,,,,,,,,,,,,,,,,,,,,,,,,,,,,,,,,,,,,,,,,,,,,,,,,277.2070502675833,None,277.2070502675833,None,num_1,1,1.7146075167156596,277.2070502675833,None,283.1585148892973,None,,,,,,,,,,,,,,,,,,,,,,,,,,,,,,,,,,,,,,,,,,,,,,,,,,,,,,,779,001,2019_May_06_1025,MAER M R1 P1 v1,3.1.0,59.94943763543904,
,Pleasant,sounds/low 1 second.wav,num_1,images/8510.jpg,,,,,,0,15,15,24,,,,,,,,,,,,,,,,,,,,,,,,,,,,,,,,,,,,,,,,,,,,,,,,284.19915484045305,None,284.19915484045305,None,num_1,1,1.6629827149126868,284.19915484045305,None,290.16563720937484,None,,,,,,,,,,,,,,,,,,,,,,,,,,,,,,,,,,,,,,,,,,,,,,,,,,,,,,,779,001,2019_May_06_1025,MAER M R1 P1 v1,3.1.0,59.94943763543904,
,Neutral,sounds/low 1 second.wav,num_1,images/2383.jpg,,,,,,0,16,16,0,,,,,,,,,,,,,,,,,,,,,,,,,,,,,,,,,,,,,,,,,,,,,,,,291.20684384529613,None,291.20684384529613,None,num_1,1,1.5449425187543966,291.20684384529613,None,297.1558692586741,None,,,,,,,,,,,,,,,,,,,,,,,,,,,,,,,,,,,,,,,,,,,,,,,,,,,,,,,779,001,2019_May_06_1025,MAER M R1 P1 v1,3.1.0,59.94943763543904,
,Neutral,sounds/high 1 second.wav,num_2,images/7235.jpg,,,,,,0,17,17,9,,,,,,,,,,,,,,,,,,,,,,,,,,,,,,,,,,,,,,,,,,,,,,,,298.19298050045563,None,298.19298050045563,None,num_2,1,1.549618118768194,298.19298050045563,None,304.14625484769385,None,,,,,,,,,,,,,,,,,,,,,,,,,,,,,,,,,,,,,,,,,,,,,,,,,,,,,,,779,001,2019_May_06_1025,MAER M R1 P1 v1,3.1.0,59.94943763543904,
,Neutral,sounds/high 1 second.wav,num_2,images/2570.jpg,,,,,,0,18,18,5,,,,,,,,,,,,,,,,,,,,,,,,,,,,,,,,,,,,,,,,,,,,,,,,305.1826461654582,None,305.1826461654582,None,num_2,1,1.8003716202101714,305.1826461654582,None,311.1366061832341,None,,,,,,,,,,,,,,,,,,,,,,,,,,,,,,,,,,,,,,,,,,,,,,,,,,,,,,,779,001,2019_May_06_1025,MAER M R1 P1 v1,3.1.0,59.94943763543904,
,Neutral,sounds/low 4 second.wav,num_1,images/7175.jpg,,,,,,0,19,19,10,,,,,,,,,,,,,,,,,,,,,,,,,,,,,,,,,,,,,,,,,,,,,,,,312.17167723967486,None,312.17167723967486,None,num_1,1,4.60403337731168,312.17167723967486,None,318.14346949892933,None,,,,,,,,,,,,,,,,,,,,,,,,,,,,,,,,,,,,,,,,,,,,,,,,,,,,,,,779,001,2019_May_06_1025,MAER M R1 P1 v1,3.1.0,59.94943763543904,
,Unpleasant,sounds/low 1 second.wav,num_1,images/9471.jpg,,,,,,0,20,20,34,,,,,,,,,,,,,,,,,,,,,,,,,,,,,,,,,,,,,,,,,,,,,,,,319.18475605963613,None,319.18475605963613,None,num_1,1,1.645555806280754,319.18475605963613,None,325.13375112563244,None,,,,,,,,,,,,,,,,,,,,,,,,,,,,,,,,,,,,,,,,,,,,,,,,,,,,,,,779,001,2019_May_06_1025,MAER M R1 P1 v1,3.1.0,59.94943763543904,
,Unpleasant,sounds/high 1 second.wav,num_2,images/2700.jpg,,,,,,0,21,21,35,,,,,,,,,,,,,,,,,,,,,,,,,,,,,,,,,,,,,,,,,,,,,,,,326.17549620222053,None,326.17549620222053,None,num_2,1,1.7786492050036031,326.17549620222053,None,332.1241673625036,None,,,,,,,,,,,,,,,,,,,,,,,,,,,,,,,,,,,,,,,,,,,,,,,,,,,,,,,779,001,2019_May_06_1025,MAER M R1 P1 v1,3.1.0,59.94943763543904,
,Unpleasant,sounds/low 1 second.wav,num_1,images/6311.jpg,,,,,,0,22,22,30,,,,,,,,,,,,,,,,,,,,,,,,,,,,,,,,,,,,,,,,,,,,,,,,333.161163224142,None,333.161163224142,None,num_1,1,1.632979070222973,333.161163224142,None,339.1144078249372,None,,,,,,,,,,,,,,,,,,,,,,,,,,,,,,,,,,,,,,,,,,,,,,,,,,,,,,,779,001,2019_May_06_1025,MAER M R1 P1 v1,3.1.0,59.94943763543904,
,Neutral,sounds/high 4 second.wav,num_2,images/7031.jpg,,,,,,0,23,23,3,,,,,,,,,,,,,,,,,,,,,,,,,,,,,,,,,,,,,,,,,,,,,,,,340.1536478904518,None,340.1536478904518,None,num_2,1,4.600626658401779,340.1536478904518,None,346.10461132966884,None,,,,,,,,,,,,,,,,,,,,,,,,,,,,,,,,,,,,,,,,,,,,,,,,,,,,,,,779,001,2019_May_06_1025,MAER M R1 P1 v1,3.1.0,59.94943763543904,
,Pleasant,sounds/high 1 second.wav,num_2,images/2360.jpg,,,,,,0,24,24,21,,,,,,,,,,,,,,,,,,,,,,,,,,,,,,,,,,,,,,,,,,,,,,,,347.15143042832824,None,347.15143042832824,None,num_2,1,1.6733807493646964,347.15143042832824,None,353.0949506464449,None,,,,,,,,,,,,,,,,,,,,,,,,,,,,,,,,,,,,,,,,,,,,,,,,,,,,,,,779,001,2019_May_06_1025,MAER M R1 P1 v1,3.1.0,59.94943763543904,
,Pleasant,sounds/high 1 second.wav,num_2,images/2391.jpg,,,,,,0,25,25,25,,,,,,,,,,,,,,,,,,,,,,,,,,,,,,,,,,,,,,,,,,,,,,,,354.12002118908276,None,354.12002118908276,None,num_2,1,1.7786452989048485,354.12002118908276,None,360.08549187846984,None,,,,,,,,,,,,,,,,,,,,,,,,,,,,,,,,,,,,,,,,,,,,,,,,,,,,,,,779,001,2019_May_06_1025,MAER M R1 P1 v1,3.1.0,59.94943763543904,
,Pleasant,sounds/low 4 second.wav,num_1,images/2362.jpg,,,,,,0,26,26,26,,,,,,,,,,,,,,,,,,,,,,,,,,,,,,,,,,,,,,,,,,,,,,,,361.11261943272075,None,361.11261943272075,None,num_1,1,4.729094935923968,361.11261943272075,None,367.091913805024,None,,,,,,,,,,,,,,,,,,,,,,,,,,,,,,,,,,,,,,,,,,,,,,,,,,,,,,,779,001,2019_May_06_1025,MAER M R1 P1 v1,3.1.0,59.94943763543904,
,Pleasant,sounds/high 4 second.wav,num_2,images/1441.jpg,,,,,,0,27,27,23,,,,,,,,,,,,,,,,,,,,,,,,,,,,,,,,,,,,,,,,,,,,,,,,368.13480997882016,None,368.13480997882016,None,num_2,1,4.713910728820338,368.13480997882016,None,374.09922151455066,None,,,,,,,,,,,,,,,,,,,,,,,,,,,,,,,,,,,,,,,,,,,,,,,,,,,,,,,779,001,2019_May_06_1025,MAER M R1 P1 v1,3.1.0,59.94943763543904,
,Unpleasant,sounds/low 1 second.wav,num_1,images/9041.jpg,,,,,,0,28,28,38,,,,,,,,,,,,,,,,,,,,,,,,,,,,,,,,,,,,,,,,,,,,,,,,375.1395480764122,None,375.1395480764122,None,num_1,1,1.6300035245030813,375.1395480764122,None,381.08984838027663,None,,,,,,,,,,,,,,,,,,,,,,,,,,,,,,,,,,,,,,,,,,,,,,,,,,,,,,,779,001,2019_May_06_1025,MAER M R1 P1 v1,3.1.0,59.94943763543904,
,Neutral,sounds/low 4 second.wav,num_1,images/5520.jpg,,,,,,0,29,29,2,,,,,,,,,,,,,,,,,,,,,,,,,,,,,,,,,,,,,,,,,,,,,,,,382.1322782259949,None,382.1322782259949,None,num_1,1,4.580454363397621,382.1322782259949,None,388.0962465697694,None,,,,,,,,,,,,,,,,,,,,,,,,,,,,,,,,,,,,,,,,,,,,,,,,,,,,,,,779,001,2019_May_06_1025,MAER M R1 P1 v1,3.1.0,59.94943763543904,
,Neutral,sounds/low 1 second.wav,num_1,images/7080.jpg,,,,,,0,30,30,16,,,,,,,,,,,,,,,,,,,,,,,,,,,,,,,,,,,,,,,,,,,,,,,,389.137154839852,None,389.137154839852,None,num_1,1,1.613012596567387,389.137154839852,None,395.10357230744376,None,,,,,,,,,,,,,,,,,,,,,,,,,,,,,,,,,,,,,,,,,,,,,,,,,,,,,,,779,001,2019_May_06_1025,MAER M R1 P1 v1,3.1.0,59.94943763543904,
,Neutral,sounds/low 4 second.wav,num_1,images/2499.jpg,,,,,,0,31,31,18,,,,,,,,,,,,,,,,,,,,,,,,,,,,,,,,,,,,,,,,,,,,,,,,396.12334738226855,None,396.12334738226855,None,num_1,1,4.6033540166263265,396.12334738226855,None,402.0938467228889,None,,,,,,,,,,,,,,,,,,,,,,,,,,,,,,,,,,,,,,,,,,,,,,,,,,,,,,,779,001,2019_May_06_1025,MAER M R1 P1 v1,3.1.0,59.94943763543904,
,Unpleasant,sounds/low 4 second.wav,num_1,images/2750.jpg,,,,,,0,32,32,36,,,,,,,,,,,,,,,,,,,,,,,,,,,,,,,,,,,,,,,,,,,,,,,,403.1340993693457,None,403.1340993693457,None,num_1,1,4.666464250634817,403.1340993693457,None,409.10097114625114,None,,,,,,,,,,,,,,,,,,,,,,,,,,,,,,,,,,,,,,,,,,,,,,,,,,,,,,,779,001,2019_May_06_1025,MAER M R1 P1 v1,3.1.0,59.94943763543904,
,Neutral,sounds/high 4 second.wav,num_2,images/2190.jpg,,,,,,0,33,33,11,,,,,,,,,,,,,,,,,,,,,,,,,,,,,,,,,,,,,,,,,,,,,,,,410.11776616831867,None,410.11776616831867,None,num_2,1,4.622901636324968,410.11776616831867,None,416.0914282469221,None,,,,,,,,,,,,,,,,,,,,,,,,,,,,,,,,,,,,,,,,,,,,,,,,,,,,,,,779,001,2019_May_06_1025,MAER M R1 P1 v1,3.1.0,59.94943763543904,
,Neutral,sounds/high 4 second.wav,num_2,images/7025.jpg,,,,,,0,34,34,19,,,,,,,,,,,,,,,,,,,,,,,,,,,,,,,,,,,,,,,,,,,,,,,,417.12790099181893,None,417.12790099181893,None,num_2,1,4.954121069225948,417.12790099181893,None,423.0982915626173,None,,,,,,,,,,,,,,,,,,,,,,,,,,,,,,,,,,,,,,,,,,,,,,,,,,,,,,,779,001,2019_May_06_1025,MAER M R1 P1 v1,3.1.0,59.94943763543904,
,Unpleasant,sounds/low 4 second.wav,num_1,images/2278.jpg,,,,,,0,35,35,32,,,,,,,,,,,,,,,,,,,,,,,,,,,,,,,,,,,,,,,,,,,,,,,,424.1391526590469,None,424.1391526590469,None,num_1,1,4.71548999452807,424.1391526590469,None,430.0885834052706,None,,,,,,,,,,,,,,,,,,,,,,,,,,,,,,,,,,,,,,,,,,,,,,,,,,,,,,,779,001,2019_May_06_1025,MAER M R1 P1 v1,3.1.0,59.94943763543904,
,Unpleasant,sounds/high 1 second.wav,num_2,images/9561.jpg,,,,,,0,36,36,39,,,,,,,,,,,,,,,,,,,,,,,,,,,,,,,,,,,,,,,,,,,,,,,,431.12594283454746,None,431.12594283454746,None,num_2,1,1.9332540896102728,431.12594283454746,None,437.07889898498524,None,,,,,,,,,,,,,,,,,,,,,,,,,,,,,,,,,,,,,,,,,,,,,,,,,,,,,,,779,001,2019_May_06_1025,MAER M R1 P1 v1,3.1.0,59.94943763543904,
,Neutral,sounds/low 1 second.wav,num_1,images/7170.jpg,,,,,,0,37,37,8,,,,,,,,,,,,,,,,,,,,,,,,,,,,,,,,,,,,,,,,,,,,,,,,438.11680737134884,None,438.11680737134884,None,num_1,1,1.8488844633129702,438.11680737134884,None,444.06928066790715,None,,,,,,,,,,,,,,,,,,,,,,,,,,,,,,,,,,,,,,,,,,,,,,,,,,,,,,,779,001,2019_May_06_1025,MAER M R1 P1 v1,3.1.0,59.94943763543904,
,Unpleasant,sounds/high 1 second.wav,num_2,images/9280.jpg,,,,,,0,38,38,31,,,,,,,,,,,,,,,,,,,,,,,,,,,,,,,,,,,,,,,,,,,,,,,,445.11043231797794,None,445.11043231797794,None,num_2,1,1.6622829223269946,445.11043231797794,None,451.05952804113076,None,,,,,,,,,,,,,,,,,,,,,,,,,,,,,,,,,,,,,,,,,,,,,,,,,,,,,,,779,001,2019_May_06_1025,MAER M R1 P1 v1,3.1.0,59.94943763543904,
,Pleasant,sounds/high 4 second.wav,num_2,images/2311.jpg,,,,,,0,39,39,27,,,,,,,,,,,,,,,,,,,,,,,,,,,,,,,,,,,,,,,,,,,,,,,,452.100354583612,None,452.100354583612,None,num_2,1,5.165386017189121,452.100354583612,None,458.0498093673659,None,,,,,,,,,,,,,,,,,,,,,,,,,,,,,,,,,,,,,,,,,,,,,,,,,,,,,,,779,001,2019_May_06_1025,MAER M R1 P1 v1,3.1.0,59.94943763543904,
,,,,,,,,,,,,,,,,,,,,,,,,,,,,,,,,,,,,,,,,,,,,,,,,,,,,,,,,,,,,,,,,,,,,,,,,459.08136313225896,None,space,2.9703584206017695,462.10378503958236,None,,,,,,,,,,,,,,,,,,,,,,,,,,,,,,,,,,,,,,,,,,,,,,,,,779,001,2019_May_06_1025,MAER M R1 P1 v1,3.1.0,59.94943763543904,
,,,,,,,,,,,,,,,,,,,,,,,,,,,,,,,,,,,,,,,,,,,,,,,,,,,,,,,,,,,,,,,,,,,,,,,,,,,,,,465.09029367551557,None,space,12.663483596939841,470.0950990781912,None,,,,,,,,,,,,,,,,,,,,,,,,,,,,,,,,,,,,,,,,,,,779,001,2019_May_06_1025,MAER M R1 P1 v1,3.1.0,59.94943763543904,
,,,,,,,,,,,,,,,,,,,,,,,,,,,,,,,,,,,,,,,,,,,,,,,,,,,,,,,,,,,,,,,,,,,,,,,,,,,,,,,,,,,,482.77463433658977,None,space,1.4186066705951816,485.77756361006504,None,,,,,,,,,,,,,,,,,,,,,,,,,,,,,,,,,,,,,779,001,2019_May_06_1025,MAER M R1 P1 v1,3.1.0,59.94943763543904,
,Pleasant,,,,images/1721.jpg,,,,,,,,,0,0,0,4,,,,,,,,,,,,,,,,,,,,,,,,,487.21217116283697,None,,,,,,,,,,,,,,,,,,,,,,,,,,,,,,,,,,,,,,,,,,,,,,,492.26438818928,498.2398981529868,498.2398981529868,None,num_4,10.059882895164264,498.2398981529868,None,498.2398981529868,None,0,17.952,508.3164934412098,None,508.3164934412098,None,508.3164934412098,None,526.2843654798244,None,,,,,,,,,,,,,,,,,779,001,2019_May_06_1025,MAER M R1 P1 v1,3.1.0,59.94943763543904,
,Pleasant,,,,images/1650.jpg,,,,,,,,,0,1,1,6,,,,,,,,,,,,,,,,,,,,,,,,,,,,,,,,,,,,,,,,,,,,,,,,,,,,,,,,,,,,,,,,,,,,,,,,,536.3198307517532,542.2837519218756,542.2837519218756,None,num_2,7.8244911780766415,542.2837519218756,None,542.2837519218756,None,0,3.8,550.1250666665865,None,550.1250666665865,None,550.1250666665865,None,553.9451857184622,None,,,,,,,,,,,,,,,,,779,001,2019_May_06_1025,MAER M R1 P1 v1,3.1.0,59.94943763543904,
,Pleasant,,,,images/8380.jpg,,,,,,,,,0,2,2,5,,,,,,,,,,,,,,,,,,,,,,,,,,,,,,,,,,,,,,,,,,,,,,,,,,,,,,,,,,,,,,,,,,,,,,,,,563.981306313548,569.9280622836441,569.9446728176708,None,num_4,4.405286273458842,569.9446728176708,None,569.9446728176708,None,0,2.098,574.3690355752442,None,574.3690355752442,None,574.3690355752442,None,576.4842943287358,None,,,,,,,,,,,,,,,,,779,001,2019_May_06_1025,MAER M R1 P1 v1,3.1.0,59.94943763543904,
,Pleasant,,,,images/2389.jpg,,,,,,,,,0,3,3,7,,,,,,,,,,,,,,,,,,,,,,,,,,,,,,,,,,,,,,,,,,,,,,,,,,,,,,,,,,,,,,,,,,,,,,,,,586.5041355067669,592.4672733538873,592.4838301039417,None,num_4,5.1391406402817665,592.4838301039417,None,592.4838301039417,None,0,1.564,597.6411169759349,None,597.6411169759349,None,597.6411169759349,None,599.2237371207666,None,,,,,,,,,,,,,,,,,779,001,2019_May_06_1025,MAER M R1 P1 v1,3.1.0,59.94943763543904,
,Unpleasant,,,,images/2205.jpg,,,,,,,,,0,4,4,8,,,,,,,,,,,,,,,,,,,,,,,,,,,,,,,,,,,,,,,,,,,,,,,,,,,,,,,,,,,,,,,,,,,,,,,,,609.2575843664717,615.206511225977,615.2232353373329,None,num_6,2.9873346255508295,615.2232353373329,None,615.2232353373329,None,0,3.016,618.2291242316633,None,618.2291242316633,None,618.2291242316633,None,621.2624026893191,None,,,,,,,,,,,,,,,,,779,001,2019_May_06_1025,MAER M R1 P1 v1,3.1.0,59.94943763543904,
,Neutral,,,,images/2745.jpg,,,,,,,,,0,5,5,3,,,,,,,,,,,,,,,,,,,,,,,,,,,,,,,,,,,,,,,,,,,,,,,,,,,,,,,,,,,,,,,,,,,,,,,,,631.299141649858,637.2453132075116,637.2619126241807,None,num_1,3.7538962582275417,637.2619126241807,None,637.2619126241807,None,0,1.718,641.0319119240876,None,641.0319119240876,None,641.0319119240876,None,642.7671018761594,None,,,,,,,,,,,,,,,,,779,001,2019_May_06_1025,MAER M R1 P1 v1,3.1.0,59.94943763543904,
,Neutral,,,,images/7513.jpg,,,,,,,,,0,6,6,0,,,,,,,,,,,,,,,,,,,,,,,,,,,,,,,,,,,,,,,,,,,,,,,,,,,,,,,,,,,,,,,,,,,,,,,,,652.8105310821793,658.7500851078794,658.7668633036765,None,num_1,2.13550736765319,658.7668633036765,None,658.7668633036765,None,0,1.465,660.9198159085781,None,660.9198159085781,None,660.9198159085781,None,662.4035420502032,None,,,,,,,,,,,,,,,,,779,001,2019_May_06_1025,MAER M R1 P1 v1,3.1.0,59.94943763543904,
,Unpleasant,,,,images/3500.jpg,,,,,,,,,0,7,7,11,,,,,,,,,,,,,,,,,,,,,,,,,,,,,,,,,,,,,,,,,,,,,,,,,,,,,,,,,,,,,,,,,,,,,,,,,672.4382669662145,678.3862542587749,678.4029020509724,None,num_5,3.020682191105152,678.4029020509724,None,678.4029020509724,None,0,1.381,681.4410811600155,None,681.4410811600155,None,681.4410811600155,None,682.8405182010674,None,,,,,,,,,,,,,,,,,779,001,2019_May_06_1025,MAER M R1 P1 v1,3.1.0,59.94943763543904,
,Neutral,,,,images/7180.jpg,,,,,,,,,0,8,8,1,,,,,,,,,,,,,,,,,,,,,,,,,,,,,,,,,,,,,,,,,,,,,,,,,,,,,,,,,,,,,,,,,,,,,,,,,692.8725007353987,698.8401885864405,698.8401885864405,None,num_2,2.2530752263510294,698.8401885864405,None,698.8401885864405,None,0,0.764,701.1118258937686,None,701.1118258937686,None,701.1118258937686,None,701.8928929738004,None,,,,,,,,,,,,,,,,,779,001,2019_May_06_1025,MAER M R1 P1 v1,3.1.0,59.94943763543904,
,Neutral,,,,images/2393.jpg,,,,,,,,,0,9,9,2,,,,,,,,,,,,,,,,,,,,,,,,,,,,,,,,,,,,,,,,,,,,,,,,,,,,,,,,,,,,,,,,,,,,,,,,,711.9262459477986,717.8918515478217,717.8918515478217,None,num_1,2.9542337451466665,717.8918515478217,None,717.8918515478217,None,0,1.231,720.8638436190431,None,720.8638436190431,None,720.8638436190431,None,722.1130950753413,None,,,,,,,,,,,,,,,,,779,001,2019_May_06_1025,MAER M R1 P1 v1,3.1.0,59.94943763543904,
,Unpleasant,,,,images/2276.jpg,,,,,,,,,0,10,10,9,,,,,,,,,,,,,,,,,,,,,,,,,,,,,,,,,,,,,,,,,,,,,,,,,,,,,,,,,,,,,,,,,,,,,,,,,732.1435193768029,738.112596296598,738.112596296598,None,num_2,3.754359281145298,738.112596296598,None,738.112596296598,None,0,1.297,741.8854530578592,None,741.8854530578592,None,741.8854530578592,None,743.200768960578,None,,,,,,,,,,,,,,,,,779,001,2019_May_06_1025,MAER M R1 P1 v1,3.1.0,59.94943763543904,
,Unpleasant,,,,images/3350.jpg,,,,,,,,,0,11,11,10,,,,,,,,,,,,,,,,,,,,,,,,,,,,,,,,,,,,,,,,,,,,,,,,,,,,,,,,,,,,,,,,,,,,,,,,,753.2354461019995,759.1835529812697,759.2004690923941,None,num_6,1.6187903173222367,759.2004690923941,None,759.2004690923941,None,0,1.615,760.8379452839717,None,760.8379452839717,None,760.8379452839717,None,762.4698922427588,None,,,,,,,,,,,,,,,,,779,001,2019_May_06_1025,MAER M R1 P1 v1,3.1.0,59.94943763543904,
,,,,,,,,,,,,,,,,,,,,,,,,,,,,,,,,,,,,,,,,,,,,,,,,,,,,,,,,,,,,,,,,,,,,,,,,,,,,,,,,,,,,,,,,,,,,,,,,,,,,,,,,,,,,,,772.4992733154277,None,space,15.833136576135985,775.5166245058408,None,,,,,,,,,,,779,001,2019_May_06_1025,MAER M R1 P1 v1,3.1.0,59.94943763543904,
,,,,,,,,,,,,,,,,,,,,,,,,,,,,,,,,,,,,,,,,,,,,,,,,,,,,,,,,,,,,,,,,,,,,,,,,,,,,,,,,,,,,,,,,,,,,,,,,,,,,,,,,,,,,,,,,,,,,791.6897881662644,None,791.6897881662644,1691.3636887272105,1691.9308530408525,None,space,11.278582350623765,1696.9360577669922,None,779,001,2019_May_06_1025,MAER M R1 P1 v1,3.1.0,59.94943763543904,
