PracticeImage,ImageCategory,SoundFile,CorrectAns,ReactivityImage1,PictureRatings_1,prac_reac_loop.thisRepN,prac_reac_loop.thisTrialN,prac_reac_loop.thisN,prac_reac_loop.thisIndex,reac_1_loop.thisRepN,reac_1_loop.thisTrialN,reac_1_loop.thisN,reac_1_loop.thisIndex,prt_1_loop.thisRepN,prt_1_loop.thisTrialN,prt_1_loop.thisN,prt_1_loop.thisIndex,slide1_headphones.started,slide1_headphones.stopped,slide1_headphones_resp.keys,slide1_headphones_resp.rt,slide1_headphones_resp.started,slide1_headphones_resp.stopped,reac_info_1.started,reac_info_1.stopped,reac_info_1_resp.keys,reac_info_1_resp.rt,reac_info_1_resp.started,reac_info_1_resp.stopped,reac_info_2.started,reac_info_2.stopped,reac_info_2_resp.keys,reac_info_2_resp.rt,reac_info_2_resp.started,reac_info_2_resp.stopped,reac_info_3.started,reac_info_3.stopped,reac_info_3_resp.keys,reac_info_3_resp.rt,reac_info_3_resp.started,reac_info_3_resp.stopped,blank_5seconds.started,blank_5seconds.stopped,practice_reac_image.started,practice_reac_image.stopped,practice_reac_sound.started,practice_reac_sound.stopped,practice_reac_keys.keys,practice_reac_keys.corr,practice_reac_keys.rt,practice_reac_keys.started,practice_reac_keys.stopped,blank_1second.started,blank_1second.stopped,post_prac_reac_text.started,post_prac_reac_text.stopped,post_prac_reac_resp.keys,post_prac_reac_resp.rt,post_prac_reac_resp.started,post_prac_reac_resp.stopped,reac_1_image.started,reac_1_image.stopped,reac_1_sound.started,reac_1_sound.stopped,reac_1_keys.keys,reac_1_keys.corr,reac_1_keys.rt,reac_1_keys.started,reac_1_keys.stopped,blank2_1second.started,blank2_1second.stopped,postreac1_slide1_text.started,postreac1_slide1_text.stopped,postreac1_slide1_resp.keys,postreac1_slide1_resp.rt,postreac1_slide1_resp.started,postreac1_slide1_resp.stopped,postreac1_slide2_text.started,postreac1_slide2_text.stopped,postreac1_slide2_resp.keys,postreac1_slide2_resp.rt,postreac1_slide2_resp.started,postreac1_slide2_resp.stopped,postreac1_slide3_text.started,postreac1_slide3_text.stopped,postreac1_slide3_resp.keys,postreac1_slide3_resp.rt,postreac1_slide3_resp.started,postreac1_slide3_resp.stopped,prt_1_image.started,prt_1_image.stopped,prt_1_image_intensity.started,prt_1_image_intensity.stopped,prt_1_image_intensity_resp.keys,prt_1_image_intensity_resp.rt,prt_1_image_intensity_resp.started,prt_1_image_intensity_resp.stopped,prt_1_image_intensity_text.started,prt_1_image_intensity_text.stopped,prt_1_vas.response,prt_1_vas.rt,prt_1_vas.started,prt_1_vas.stopped,prt_1_vas_guide.started,prt_1_vas_guide.stopped,prt_1_vas_instructions.started,prt_1_vas_instructions.stopped,blank_10seconds.started,blank_10seconds.stopped,pre_m_text.started,pre_m_text.stopped,pre_m_resp.keys,pre_m_resp.rt,pre_m_resp.started,pre_m_resp.stopped,m_audio_file.started,m_audio_file.stopped,m_inprogress_text.started,m_inprogress_text.stopped,pleasewait_text.started,pleasewait_text.stopped,pleasewait_resp.keys,pleasewait_resp.rt,pleasewait_resp.started,pleasewait_resp.stopped,participant,session,date,expName,psychopyVersion,frameRate,
,,,,,,,,,,,,,,,,,,10.024039633079155,None,space,45.11338863367382,10.024039633079155,None,,,,,,,,,,,,,,,,,,,,,,,,,,,,,,,,,,,,,,,,,,,,,,,,,,,,,,,,,,,,,,,,,,,,,,,,,,,,,,,,,,,,,,,,,,,,,,,,,,,,,,,787,001,2019_May_01_1924,MAER M R1 P1 v1,3.1.0,60.026098076194465,
,,,,,,,,,,,,,,,,,,,,,,,,55.15313859528851,None,space,13.464065245067104,58.156225915521645,None,,,,,,,,,,,,,,,,,,,,,,,,,,,,,,,,,,,,,,,,,,,,,,,,,,,,,,,,,,,,,,,,,,,,,,,,,,,,,,,,,,,,,,,,,,,,,,,,,787,001,2019_May_01_1924,MAER M R1 P1 v1,3.1.0,60.026098076194465,
,,,,,,,,,,,,,,,,,,,,,,,,,,,,,,71.63631217419697,None,space,24.074646745963946,74.63950435815423,None,,,,,,,,,,,,,,,,,,,,,,,,,,,,,,,,,,,,,,,,,,,,,,,,,,,,,,,,,,,,,,,,,,,,,,,,,,,,,,,,,,,,,,,,,,,787,001,2019_May_01_1924,MAER M R1 P1 v1,3.1.0,60.026098076194465,
,,,,,,,,,,,,,,,,,,,,,,,,,,,,,,,,,,,,98.73025054016853,None,space,12.830096429554942,103.73531915379499,None,,,,,,,,,,,,,,,,,,,,,,,,,,,,,,,,,,,,,,,,,,,,,,,,,,,,,,,,,,,,,,,,,,,,,,,,,,,,,,,,,,,,,787,001,2019_May_01_1924,MAER M R1 P1 v1,3.1.0,60.026098076194465,
images/7041.jpg,Neutral,sounds/low 1 second.wav,num_1,,,0,0,0,0,,,,,,,,,,,,,,,,,,,,,,,,,,,,,,,,,116.58140414629361,None,121.65377664147036,None,121.65377664147036,None,['num_1'],0,[2.5359663041899694],121.65377664147036,None,127.59214020850686,None,,,,,,,,,,,,,,,,,,,,,,,,,,,,,,,,,,,,,,,,,,,,,,,,,,,,,,,,,,,,,,,,,,,,,,,,787,001,2019_May_01_1924,MAER M R1 P1 v1,3.1.0,60.026098076194465,
images/7042.jpg,Neutral,sounds/low 4 second.wav,num_1,,,0,1,1,1,,,,,,,,,,,,,,,,,,,,,,,,,,,,,,,,,,,128.63132468723416,None,128.63132468723416,None,['num_1'],0,[4.583591561505273],128.63132468723416,None,134.58241492442085,None,,,,,,,,,,,,,,,,,,,,,,,,,,,,,,,,,,,,,,,,,,,,,,,,,,,,,,,,,,,,,,,,,,,,,,,,787,001,2019_May_01_1924,MAER M R1 P1 v1,3.1.0,60.026098076194465,
images/7053.jpg,Neutral,sounds/high 1 second.wav,num_2,,,0,2,2,2,,,,,,,,,,,,,,,,,,,,,,,,,,,,,,,,,,,135.60523345098682,None,135.60523345098682,None,['num_2'],0,[1.547338760005914],135.60523345098682,None,141.5726148235235,None,,,,,,,,,,,,,,,,,,,,,,,,,,,,,,,,,,,,,,,,,,,,,,,,,,,,,,,,,,,,,,,,,,,,,,,,787,001,2019_May_01_1924,MAER M R1 P1 v1,3.1.0,60.026098076194465,
images/7059.jpg,Neutral,sounds/high 4 second.wav,num_2,,,0,3,3,3,,,,,,,,,,,,,,,,,,,,,,,,,,,,,,,,,,,142.59187339192613,None,142.59187339192613,None,['num_2'],0,[4.670680733829613],142.59187339192613,None,148.56311038424246,None,,,,,,,,,,,,,,,,,,,,,,,,,,,,,,,,,,,,,,,,,,,,,,,,,,,,,,,,,,,,,,,,,,,,,,,,787,001,2019_May_01_1924,MAER M R1 P1 v1,3.1.0,60.026098076194465,
,,,,,,,,,,,,,,,,,,,,,,,,,,,,,,,,,,,,,,,,,,,,,,,,,,,,,,,149.5813713951593,None,space,34.01773428854449,152.60051848951753,None,,,,,,,,,,,,,,,,,,,,,,,,,,,,,,,,,,,,,,,,,,,,,,,,,,,,,,,,,,,,,,,,,,787,001,2019_May_01_1924,MAER M R1 P1 v1,3.1.0,60.026098076194465,
,Pleasant,sounds/high 1 second.wav,num_2,images/2360.jpg,,,,,,0,0,0,21,,,,,,,,,,,,,,,,,,,,,,,,,,,,,186.63427349120138,None,,,,,,,,,,,,,,,,,,191.6717368827949,None,191.6717368827949,None,num_2,1,2.6544731288959156,191.6717368827949,None,197.6453998628058,None,,,,,,,,,,,,,,,,,,,,,,,,,,,,,,,,,,,,,,,,,,,,,,,,,,,,,,,787,001,2019_May_01_1924,MAER M R1 P1 v1,3.1.0,60.026098076194465,
,Neutral,sounds/low 1 second.wav,num_1,images/7080.jpg,,,,,,0,1,1,16,,,,,,,,,,,,,,,,,,,,,,,,,,,,,,,,,,,,,,,,,,,,,,,,198.683748736903,None,198.683748736903,None,num_1,1,1.5145329402794232,198.683748736903,None,204.6355387666763,None,,,,,,,,,,,,,,,,,,,,,,,,,,,,,,,,,,,,,,,,,,,,,,,,,,,,,,,787,001,2019_May_01_1924,MAER M R1 P1 v1,3.1.0,60.026098076194465,
,Neutral,sounds/low 4 second.wav,num_1,images/7175.jpg,,,,,,0,2,2,10,,,,,,,,,,,,,,,,,,,,,,,,,,,,,,,,,,,,,,,,,,,,,,,,205.65656499492616,None,205.65656499492616,None,num_1,1,4.56852543876721,205.65656499492616,None,211.6262131065232,None,,,,,,,,,,,,,,,,,,,,,,,,,,,,,,,,,,,,,,,,,,,,,,,,,,,,,,,787,001,2019_May_01_1924,MAER M R1 P1 v1,3.1.0,60.026098076194465,
,Unpleasant,sounds/high 4 second.wav,num_2,images/9008.jpg,,,,,,0,3,3,37,,,,,,,,,,,,,,,,,,,,,,,,,,,,,,,,,,,,,,,,,,,,,,,,212.64924676898045,None,212.64924676898045,None,num_2,1,4.566118981566433,212.64924676898045,None,218.6162420386945,None,,,,,,,,,,,,,,,,,,,,,,,,,,,,,,,,,,,,,,,,,,,,,,,,,,,,,,,787,001,2019_May_01_1924,MAER M R1 P1 v1,3.1.0,60.026098076194465,
,Unpleasant,sounds/low 1 second.wav,num_1,images/9041.jpg,,,,,,0,4,4,38,,,,,,,,,,,,,,,,,,,,,,,,,,,,,,,,,,,,,,,,,,,,,,,,219.6524425585667,None,219.6524425585667,None,num_1,1,1.5841423214060342,219.6524425585667,None,225.6066495619607,None,,,,,,,,,,,,,,,,,,,,,,,,,,,,,,,,,,,,,,,,,,,,,,,,,,,,,,,787,001,2019_May_01_1924,MAER M R1 P1 v1,3.1.0,60.026098076194465,
,Neutral,sounds/high 4 second.wav,num_2,images/7031.jpg,,,,,,0,5,5,3,,,,,,,,,,,,,,,,,,,,,,,,,,,,,,,,,,,,,,,,,,,,,,,,226.6433134052195,None,226.6433134052195,None,num_2,1,4.435503852164402,226.6433134052195,None,232.59704386458543,None,,,,,,,,,,,,,,,,,,,,,,,,,,,,,,,,,,,,,,,,,,,,,,,,,,,,,,,787,001,2019_May_01_1924,MAER M R1 P1 v1,3.1.0,60.026098076194465,
,Unpleasant,sounds/high 1 second.wav,num_2,images/2700.jpg,,,,,,0,6,6,35,,,,,,,,,,,,,,,,,,,,,,,,,,,,,,,,,,,,,,,,,,,,,,,,233.61746975552887,None,233.61746975552887,None,num_2,1,1.6827016020106385,233.61746975552887,None,239.58726179183577,None,,,,,,,,,,,,,,,,,,,,,,,,,,,,,,,,,,,,,,,,,,,,,,,,,,,,,,,787,001,2019_May_01_1924,MAER M R1 P1 v1,3.1.0,60.026098076194465,
,Pleasant,sounds/low 1 second.wav,num_1,images/8510.jpg,,,,,,0,7,7,24,,,,,,,,,,,,,,,,,,,,,,,,,,,,,,,,,,,,,,,,,,,,,,,,240.6249036620875,None,240.6249036620875,None,num_1,1,1.3992092854578004,240.6249036620875,None,246.5775662541928,None,,,,,,,,,,,,,,,,,,,,,,,,,,,,,,,,,,,,,,,,,,,,,,,,,,,,,,,787,001,2019_May_01_1924,MAER M R1 P1 v1,3.1.0,60.026098076194465,
,Neutral,sounds/high 1 second.wav,num_2,images/2210.jpg,,,,,,0,8,8,17,,,,,,,,,,,,,,,,,,,,,,,,,,,,,,,,,,,,,,,,,,,,,,,,247.59656161164366,None,247.59656161164366,None,num_2,1,1.4843418028567612,247.59656161164366,None,253.56815826549973,None,,,,,,,,,,,,,,,,,,,,,,,,,,,,,,,,,,,,,,,,,,,,,,,,,,,,,,,787,001,2019_May_01_1924,MAER M R1 P1 v1,3.1.0,60.026098076194465,
,Unpleasant,sounds/low 1 second.wav,num_1,images/6311.jpg,,,,,,0,9,9,30,,,,,,,,,,,,,,,,,,,,,,,,,,,,,,,,,,,,,,,,,,,,,,,,254.58623929541136,None,254.58623929541136,None,num_1,1,1.5850851935128958,254.58623929541136,None,260.5581817892271,None,,,,,,,,,,,,,,,,,,,,,,,,,,,,,,,,,,,,,,,,,,,,,,,,,,,,,,,787,001,2019_May_01_1924,MAER M R1 P1 v1,3.1.0,60.026098076194465,
,Neutral,sounds/low 1 second.wav,num_1,images/2383.jpg,,,,,,0,10,10,0,,,,,,,,,,,,,,,,,,,,,,,,,,,,,,,,,,,,,,,,,,,,,,,,261.57913951051796,None,261.57913951051796,None,num_1,1,1.5324321863727164,261.57913951051796,None,267.5651601845957,None,,,,,,,,,,,,,,,,,,,,,,,,,,,,,,,,,,,,,,,,,,,,,,,,,,,,,,,787,001,2019_May_01_1924,MAER M R1 P1 v1,3.1.0,60.026098076194465,
,Unpleasant,sounds/low 1 second.wav,num_1,images/9471.jpg,,,,,,0,11,11,34,,,,,,,,,,,,,,,,,,,,,,,,,,,,,,,,,,,,,,,,,,,,,,,,268.6001618326691,None,268.6001618326691,None,num_1,1,1.6352064478269313,268.6001618326691,None,274.5720316129573,None,,,,,,,,,,,,,,,,,,,,,,,,,,,,,,,,,,,,,,,,,,,,,,,,,,,,,,,787,001,2019_May_01_1924,MAER M R1 P1 v1,3.1.0,60.026098076194465,
,Pleasant,sounds/high 4 second.wav,num_2,images/2311.jpg,,,,,,0,12,12,27,,,,,,,,,,,,,,,,,,,,,,,,,,,,,,,,,,,,,,,,,,,,,,,,275.59087012552664,None,275.59087012552664,None,num_2,1,4.504454304505998,275.59087012552664,None,281.5624211080758,None,,,,,,,,,,,,,,,,,,,,,,,,,,,,,,,,,,,,,,,,,,,,,,,,,,,,,,,787,001,2019_May_01_1924,MAER M R1 P1 v1,3.1.0,60.026098076194465,
,Neutral,sounds/low 1 second.wav,num_1,images/7170.jpg,,,,,,0,13,13,8,,,,,,,,,,,,,,,,,,,,,,,,,,,,,,,,,,,,,,,,,,,,,,,,282.598103018242,None,282.598103018242,None,num_1,1,1.5344973106512043,282.598103018242,None,288.56946049867656,None,,,,,,,,,,,,,,,,,,,,,,,,,,,,,,,,,,,,,,,,,,,,,,,,,,,,,,,787,001,2019_May_01_1924,MAER M R1 P1 v1,3.1.0,60.026098076194465,
,Neutral,sounds/low 1 second.wav,num_1,images/2512.jpg,,,,,,0,14,14,4,,,,,,,,,,,,,,,,,,,,,,,,,,,,,,,,,,,,,,,,,,,,,,,,289.5882668610502,None,289.5882668610502,None,num_1,1,1.7839726164456806,289.5882668610502,None,295.5598596088066,None,,,,,,,,,,,,,,,,,,,,,,,,,,,,,,,,,,,,,,,,,,,,,,,,,,,,,,,787,001,2019_May_01_1924,MAER M R1 P1 v1,3.1.0,60.026098076194465,
,Pleasant,sounds/low 1 second.wav,num_1,images/1605.jpg,,,,,,0,15,15,20,,,,,,,,,,,,,,,,,,,,,,,,,,,,,,,,,,,,,,,,,,,,,,,,296.5832826792466,None,296.5832826792466,None,num_1,1,1.5466437749264514,296.5832826792466,None,302.5498960527066,None,,,,,,,,,,,,,,,,,,,,,,,,,,,,,,,,,,,,,,,,,,,,,,,,,,,,,,,787,001,2019_May_01_1924,MAER M R1 P1 v1,3.1.0,60.026098076194465,
,Neutral,sounds/low 4 second.wav,num_1,images/9700.jpg,,,,,,0,16,16,14,,,,,,,,,,,,,,,,,,,,,,,,,,,,,,,,,,,,,,,,,,,,,,,,303.56941272408585,None,303.56941272408585,None,num_1,1,4.520375862834953,303.56941272408585,None,309.54054425174036,None,,,,,,,,,,,,,,,,,,,,,,,,,,,,,,,,,,,,,,,,,,,,,,,,,,,,,,,787,001,2019_May_01_1924,MAER M R1 P1 v1,3.1.0,60.026098076194465,
,Neutral,sounds/low 4 second.wav,num_1,images/5520.jpg,,,,,,0,17,17,2,,,,,,,,,,,,,,,,,,,,,,,,,,,,,,,,,,,,,,,,,,,,,,,,310.57706597310334,None,310.57706597310334,None,num_1,1,4.653455139508878,310.57706597310334,None,316.53080244185185,None,,,,,,,,,,,,,,,,,,,,,,,,,,,,,,,,,,,,,,,,,,,,,,,,,,,,,,,787,001,2019_May_01_1924,MAER M R1 P1 v1,3.1.0,60.026098076194465,
,Pleasant,sounds/high 1 second.wav,num_2,images/1900.jpg,,,,,,0,18,18,29,,,,,,,,,,,,,,,,,,,,,,,,,,,,,,,,,,,,,,,,,,,,,,,,317.5667304362296,None,317.5667304362296,None,num_2,1,1.8845955189835877,317.5667304362296,None,323.5211393548743,None,,,,,,,,,,,,,,,,,,,,,,,,,,,,,,,,,,,,,,,,,,,,,,,,,,,,,,,787,001,2019_May_01_1924,MAER M R1 P1 v1,3.1.0,60.026098076194465,
,Unpleasant,sounds/high 1 second.wav,num_2,images/9280.jpg,,,,,,0,19,19,31,,,,,,,,,,,,,,,,,,,,,,,,,,,,,,,,,,,,,,,,,,,,,,,,324.555598956651,None,324.555598956651,None,num_2,1,1.568563297876608,324.555598956651,None,330.5281015249102,None,,,,,,,,,,,,,,,,,,,,,,,,,,,,,,,,,,,,,,,,,,,,,,,,,,,,,,,787,001,2019_May_01_1924,MAER M R1 P1 v1,3.1.0,60.026098076194465,
,Neutral,sounds/high 4 second.wav,num_2,images/5530.jpg,,,,,,0,20,20,7,,,,,,,,,,,,,,,,,,,,,,,,,,,,,,,,,,,,,,,,,,,,,,,,331.547031981032,None,331.547031981032,None,num_2,1,4.5865532856450955,331.547031981032,None,337.51796580000337,None,,,,,,,,,,,,,,,,,,,,,,,,,,,,,,,,,,,,,,,,,,,,,,,,,,,,,,,787,001,2019_May_01_1924,MAER M R1 P1 v1,3.1.0,60.026098076194465,
,Pleasant,sounds/low 4 second.wav,num_1,images/2362.jpg,,,,,,0,21,21,26,,,,,,,,,,,,,,,,,,,,,,,,,,,,,,,,,,,,,,,,,,,,,,,,338.5437721915223,None,338.5437721915223,None,num_1,1,4.530867944121383,338.5437721915223,None,344.5251202702775,None,,,,,,,,,,,,,,,,,,,,,,,,,,,,,,,,,,,,,,,,,,,,,,,,,,,,,,,787,001,2019_May_01_1924,MAER M R1 P1 v1,3.1.0,60.026098076194465,
,Unpleasant,sounds/high 4 second.wav,num_2,images/2490.jpg,,,,,,0,22,22,33,,,,,,,,,,,,,,,,,,,,,,,,,,,,,,,,,,,,,,,,,,,,,,,,345.5451258049188,None,345.5451258049188,None,num_2,1,4.703031943773567,345.5451258049188,None,351.5322567124049,None,,,,,,,,,,,,,,,,,,,,,,,,,,,,,,,,,,,,,,,,,,,,,,,,,,,,,,,787,001,2019_May_01_1924,MAER M R1 P1 v1,3.1.0,60.026098076194465,
,Neutral,sounds/high 4 second.wav,num_2,images/7025.jpg,,,,,,0,23,23,19,,,,,,,,,,,,,,,,,,,,,,,,,,,,,,,,,,,,,,,,,,,,,,,,352.56745697056795,None,352.56745697056795,None,num_2,1,4.470791246372755,352.56745697056795,None,358.5391278402967,None,,,,,,,,,,,,,,,,,,,,,,,,,,,,,,,,,,,,,,,,,,,,,,,,,,,,,,,787,001,2019_May_01_1924,MAER M R1 P1 v1,3.1.0,60.026098076194465,
,Neutral,sounds/high 1 second.wav,num_2,images/5510.jpg,,,,,,0,24,24,13,,,,,,,,,,,,,,,,,,,,,,,,,,,,,,,,,,,,,,,,,,,,,,,,359.57516009745996,None,359.57516009745996,None,num_2,1,1.6676474980386047,359.57516009745996,None,365.54631746545874,None,,,,,,,,,,,,,,,,,,,,,,,,,,,,,,,,,,,,,,,,,,,,,,,,,,,,,,,787,001,2019_May_01_1924,MAER M R1 P1 v1,3.1.0,60.026098076194465,
,Neutral,sounds/high 1 second.wav,num_2,images/7235.jpg,,,,,,0,25,25,9,,,,,,,,,,,,,,,,,,,,,,,,,,,,,,,,,,,,,,,,,,,,,,,,366.56532484167474,None,366.56532484167474,None,num_2,1,1.6176127788312442,366.56532484167474,None,372.5366300404821,None,,,,,,,,,,,,,,,,,,,,,,,,,,,,,,,,,,,,,,,,,,,,,,,,,,,,,,,787,001,2019_May_01_1924,MAER M R1 P1 v1,3.1.0,60.026098076194465,
,Pleasant,sounds/low 1 second.wav,num_1,images/4150.jpg,,,,,,0,26,26,28,,,,,,,,,,,,,,,,,,,,,,,,,,,,,,,,,,,,,,,,,,,,,,,,373.55605987628496,None,373.55605987628496,None,num_1,1,1.7507148911590775,373.55605987628496,None,379.5267325875884,None,,,,,,,,,,,,,,,,,,,,,,,,,,,,,,,,,,,,,,,,,,,,,,,,,,,,,,,787,001,2019_May_01_1924,MAER M R1 P1 v1,3.1.0,60.026098076194465,
,Pleasant,sounds/high 1 second.wav,num_2,images/2391.jpg,,,,,,0,27,27,25,,,,,,,,,,,,,,,,,,,,,,,,,,,,,,,,,,,,,,,,,,,,,,,,380.5612129217343,None,380.5612129217343,None,num_2,1,1.6866593812919746,380.5612129217343,None,386.5337969171269,None,,,,,,,,,,,,,,,,,,,,,,,,,,,,,,,,,,,,,,,,,,,,,,,,,,,,,,,787,001,2019_May_01_1924,MAER M R1 P1 v1,3.1.0,60.026098076194465,
,Neutral,sounds/low 4 second.wav,num_1,images/7038.jpg,,,,,,0,28,28,6,,,,,,,,,,,,,,,,,,,,,,,,,,,,,,,,,,,,,,,,,,,,,,,,387.55715087966837,None,387.55715087966837,None,num_1,1,4.466457279751012,387.55715087966837,None,393.5243201210051,None,,,,,,,,,,,,,,,,,,,,,,,,,,,,,,,,,,,,,,,,,,,,,,,,,,,,,,,787,001,2019_May_01_1924,MAER M R1 P1 v1,3.1.0,60.026098076194465,
,Pleasant,sounds/low 4 second.wav,num_1,images/2306.jpg,,,,,,0,29,29,22,,,,,,,,,,,,,,,,,,,,,,,,,,,,,,,,,,,,,,,,,,,,,,,,394.5651394522265,None,394.5651394522265,None,num_1,1,4.748348095881738,394.5651394522265,None,400.5146702546681,None,,,,,,,,,,,,,,,,,,,,,,,,,,,,,,,,,,,,,,,,,,,,,,,,,,,,,,,787,001,2019_May_01_1924,MAER M R1 P1 v1,3.1.0,60.026098076194465,
,Unpleasant,sounds/low 4 second.wav,num_1,images/2278.jpg,,,,,,0,30,30,32,,,,,,,,,,,,,,,,,,,,,,,,,,,,,,,,,,,,,,,,,,,,,,,,401.5350606902557,None,401.5350606902557,None,num_1,1,4.8203558215436715,401.5350606902557,None,407.5046904732353,None,,,,,,,,,,,,,,,,,,,,,,,,,,,,,,,,,,,,,,,,,,,,,,,,,,,,,,,787,001,2019_May_01_1924,MAER M R1 P1 v1,3.1.0,60.026098076194465,
,Neutral,sounds/high 1 second.wav,num_2,images/5533.jpg,,,,,,0,31,31,1,,,,,,,,,,,,,,,,,,,,,,,,,,,,,,,,,,,,,,,,,,,,,,,,408.53827871455724,None,408.53827871455724,None,num_2,1,1.6375242666372287,408.53827871455724,None,414.5120291310823,None,,,,,,,,,,,,,,,,,,,,,,,,,,,,,,,,,,,,,,,,,,,,,,,,,,,,,,,787,001,2019_May_01_1924,MAER M R1 P1 v1,3.1.0,60.026098076194465,
,Neutral,sounds/low 4 second.wav,num_1,images/2499.jpg,,,,,,0,32,32,18,,,,,,,,,,,,,,,,,,,,,,,,,,,,,,,,,,,,,,,,,,,,,,,,415.54883509623505,None,415.54883509623505,None,num_1,1,4.552828631341981,415.54883509623505,None,421.5022599785043,None,,,,,,,,,,,,,,,,,,,,,,,,,,,,,,,,,,,,,,,,,,,,,,,,,,,,,,,787,001,2019_May_01_1924,MAER M R1 P1 v1,3.1.0,60.026098076194465,
,Pleasant,sounds/high 4 second.wav,num_2,images/1441.jpg,,,,,,0,33,33,23,,,,,,,,,,,,,,,,,,,,,,,,,,,,,,,,,,,,,,,,,,,,,,,,422.5381362921926,None,422.5381362921926,None,num_2,1,4.453325877692805,422.5381362921926,None,428.49234870403143,None,,,,,,,,,,,,,,,,,,,,,,,,,,,,,,,,,,,,,,,,,,,,,,,,,,,,,,,787,001,2019_May_01_1924,MAER M R1 P1 v1,3.1.0,60.026098076194465,
,Unpleasant,sounds/high 1 second.wav,num_2,images/9561.jpg,,,,,,0,34,34,39,,,,,,,,,,,,,,,,,,,,,,,,,,,,,,,,,,,,,,,,,,,,,,,,429.51209433288204,None,429.51209433288204,None,num_2,1,1.7672097445738473,429.51209433288204,None,435.48267960767134,None,,,,,,,,,,,,,,,,,,,,,,,,,,,,,,,,,,,,,,,,,,,,,,,,,,,,,,,787,001,2019_May_01_1924,MAER M R1 P1 v1,3.1.0,60.026098076194465,
,Neutral,sounds/high 4 second.wav,num_2,images/7045.jpg,,,,,,0,35,35,15,,,,,,,,,,,,,,,,,,,,,,,,,,,,,,,,,,,,,,,,,,,,,,,,436.5280258066914,None,436.5280258066914,None,num_2,1,4.661191017536112,436.5280258066914,None,442.4898710356474,None,,,,,,,,,,,,,,,,,,,,,,,,,,,,,,,,,,,,,,,,,,,,,,,,,,,,,,,787,001,2019_May_01_1924,MAER M R1 P1 v1,3.1.0,60.026098076194465,
,Neutral,sounds/high 1 second.wav,num_2,images/2570.jpg,,,,,,0,36,36,5,,,,,,,,,,,,,,,,,,,,,,,,,,,,,,,,,,,,,,,,,,,,,,,,443.5234580750921,None,443.5234580750921,None,num_2,1,1.6193891522834747,443.5234580750921,None,449.4800937704031,None,,,,,,,,,,,,,,,,,,,,,,,,,,,,,,,,,,,,,,,,,,,,,,,,,,,,,,,787,001,2019_May_01_1924,MAER M R1 P1 v1,3.1.0,60.026098076194465,
,Unpleasant,sounds/low 4 second.wav,num_1,images/2750.jpg,,,,,,0,37,37,36,,,,,,,,,,,,,,,,,,,,,,,,,,,,,,,,,,,,,,,,,,,,,,,,450.4981456548103,None,450.4981456548103,None,num_1,1,4.421127306062772,450.4981456548103,None,456.47028555683937,None,,,,,,,,,,,,,,,,,,,,,,,,,,,,,,,,,,,,,,,,,,,,,,,,,,,,,,,787,001,2019_May_01_1924,MAER M R1 P1 v1,3.1.0,60.026098076194465,
,Neutral,sounds/high 4 second.wav,num_2,images/2190.jpg,,,,,,0,38,38,11,,,,,,,,,,,,,,,,,,,,,,,,,,,,,,,,,,,,,,,,,,,,,,,,457.489479223912,None,457.489479223912,None,num_2,1,4.570521755617847,457.489479223912,None,463.4606420003547,None,,,,,,,,,,,,,,,,,,,,,,,,,,,,,,,,,,,,,,,,,,,,,,,,,,,,,,,787,001,2019_May_01_1924,MAER M R1 P1 v1,3.1.0,60.026098076194465,
,Neutral,sounds/low 1 second.wav,num_1,images/7056.jpg,,,,,,0,39,39,12,,,,,,,,,,,,,,,,,,,,,,,,,,,,,,,,,,,,,,,,,,,,,,,,464.49883222675544,None,464.49883222675544,None,num_1,1,1.648561398912534,464.49883222675544,None,470.46749600150724,None,,,,,,,,,,,,,,,,,,,,,,,,,,,,,,,,,,,,,,,,,,,,,,,,,,,,,,,787,001,2019_May_01_1924,MAER M R1 P1 v1,3.1.0,60.026098076194465,
,,,,,,,,,,,,,,,,,,,,,,,,,,,,,,,,,,,,,,,,,,,,,,,,,,,,,,,,,,,,,,,,,,,,,,,,471.4830056166693,None,space,2.8371138859101848,474.50487436033836,None,,,,,,,,,,,,,,,,,,,,,,,,,,,,,,,,,,,,,,,,,,,,,,,,,787,001,2019_May_01_1924,MAER M R1 P1 v1,3.1.0,60.026098076194465,
,,,,,,,,,,,,,,,,,,,,,,,,,,,,,,,,,,,,,,,,,,,,,,,,,,,,,,,,,,,,,,,,,,,,,,,,,,,,,,477.3578461051238,None,space,11.846009574749587,482.3627753010769,None,,,,,,,,,,,,,,,,,,,,,,,,,,,,,,,,,,,,,,,,,,,787,001,2019_May_01_1924,MAER M R1 P1 v1,3.1.0,60.026098076194465,
,,,,,,,,,,,,,,,,,,,,,,,,,,,,,,,,,,,,,,,,,,,,,,,,,,,,,,,,,,,,,,,,,,,,,,,,,,,,,,,,,,,,494.2248804057772,None,space,2.2868176083320577,497.2276351066921,None,,,,,,,,,,,,,,,,,,,,,,,,,,,,,,,,,,,,,787,001,2019_May_01_1924,MAER M R1 P1 v1,3.1.0,60.026098076194465,
,Unpleasant,,,,images/2205.jpg,,,,,,,,,0,0,0,8,,,,,,,,,,,,,,,,,,,,,,,,,499.53022253644576,None,,,,,,,,,,,,,,,,,,,,,,,,,,,,,,,,,,,,,,,,,,,,,,,504.5779144979051,510.55790655951114,510.55790655951114,None,num_7,8.12502850700821,510.55790655951114,None,510.55790655951114,None,20,17.781,518.7084638245688,None,518.7084638245688,None,518.7084638245688,None,536.4999592864333,None,,,,,,,,,,,,,,,,,787,001,2019_May_01_1924,MAER M R1 P1 v1,3.1.0,60.026098076194465,
,Unpleasant,,,,images/3500.jpg,,,,,,,,,0,1,1,11,,,,,,,,,,,,,,,,,,,,,,,,,,,,,,,,,,,,,,,,,,,,,,,,,,,,,,,,,,,,,,,,,,,,,,,,,546.5291047913106,552.4996990801737,552.4996990801737,None,8,4.754385421959341,552.4996990801737,None,552.4996990801737,None,16,12.978,557.2708587918314,None,557.2708587918314,None,557.2708587918314,None,570.2672516600169,None,,,,,,,,,,,,,,,,,787,001,2019_May_01_1924,MAER M R1 P1 v1,3.1.0,60.026098076194465,
,Neutral,,,,images/7513.jpg,,,,,,,,,0,2,2,0,,,,,,,,,,,,,,,,,,,,,,,,,,,,,,,,,,,,,,,,,,,,,,,,,,,,,,,,,,,,,,,,,,,,,,,,,580.3085697699817,586.2498286574828,586.2665725997995,None,2,3.737932333752724,586.2665725997995,None,586.2665725997995,None,30,11.514,590.0285253366073,None,590.0285253366073,None,590.0285253366073,None,601.564845893894,None,,,,,,,,,,,,,,,,,787,001,2019_May_01_1924,MAER M R1 P1 v1,3.1.0,60.026098076194465,
,Pleasant,,,,images/1721.jpg,,,,,,,,,0,3,3,4,,,,,,,,,,,,,,,,,,,,,,,,,,,,,,,,,,,,,,,,,,,,,,,,,,,,,,,,,,,,,,,,,,,,,,,,,611.5972256484047,617.547887116154,617.5644865328231,None,3,2.9035268765119326,617.5644865328231,None,617.5644865328231,None,39,4.275,620.4926269384387,None,620.4926269384387,None,620.4926269384387,None,624.7881824893202,None,,,,,,,,,,,,,,,,,787,001,2019_May_01_1924,MAER M R1 P1 v1,3.1.0,60.026098076194465,
,Unpleasant,,,,images/2276.jpg,,,,,,,,,0,4,4,9,,,,,,,,,,,,,,,,,,,,,,,,,,,,,,,,,,,,,,,,,,,,,,,,,,,,,,,,,,,,,,,,,,,,,,,,,634.8140823267368,640.7709824348749,640.7876596730475,None,7,2.7865653645039856,640.7876596730475,None,640.7876596730475,None,16,7.669,643.5905942948721,None,643.5905942948721,None,643.5905942948721,None,651.28118230994,None,,,,,,,,,,,,,,,,,787,001,2019_May_01_1924,MAER M R1 P1 v1,3.1.0,60.026098076194465,
,Pleasant,,,,images/2389.jpg,,,,,,,,,0,5,5,7,,,,,,,,,,,,,,,,,,,,,,,,,,,,,,,,,,,,,,,,,,,,,,,,,,,,,,,,,,,,,,,,,,,,,,,,,661.3114070999045,667.2808208455863,667.2808208455863,None,5,8.992744572099582,667.2808208455863,None,667.2808208455863,None,20,8.094,676.2982892189575,None,676.2982892189575,None,676.2982892189575,None,684.4142044974815,None,,,,,,,,,,,,,,,,,787,001,2019_May_01_1924,MAER M R1 P1 v1,3.1.0,60.026098076194465,
,Neutral,,,,images/2745.jpg,,,,,,,,,0,6,6,3,,,,,,,,,,,,,,,,,,,,,,,,,,,,,,,,,,,,,,,,,,,,,,,,,,,,,,,,,,,,,,,,,,,,,,,,,694.4469904862462,700.3971486682158,700.4139079344577,None,5,2.2192045440551738,700.4139079344577,None,700.4139079344577,None,20,8.519,702.6492981492001,None,702.6492981492001,None,702.6492981492001,None,711.1907212731239,None,,,,,,,,,,,,,,,,,787,001,2019_May_01_1924,MAER M R1 P1 v1,3.1.0,60.026098076194465,
,Neutral,,,,images/7180.jpg,,,,,,,,,0,7,7,1,,,,,,,,,,,,,,,,,,,,,,,,,,,,,,,,,,,,,,,,,,,,,,,,,,,,,,,,,,,,,,,,,,,,,,,,,721.2153834782239,727.1905166536508,727.1905166536508,None,6,4.021494659612472,727.1905166536508,None,727.1905166536508,None,18,6.708,731.2375671135342,None,731.2375671135342,None,731.2375671135342,None,737.9677299167188,None,,,,,,,,,,,,,,,,,787,001,2019_May_01_1924,MAER M R1 P1 v1,3.1.0,60.026098076194465,
,Pleasant,,,,images/1650.jpg,,,,,,,,,0,8,8,6,,,,,,,,,,,,,,,,,,,,,,,,,,,,,,,,,,,,,,,,,,,,,,,,,,,,,,,,,,,,,,,,,,,,,,,,,747.99917821695,753.9506731860447,753.9671659361757,None,6,2.536370134691424,753.9671659361757,None,753.9671659361757,None,18,6.753,756.5197283518755,None,756.5197283518755,None,756.5197283518755,None,763.2930141830439,None,,,,,,,,,,,,,,,,,787,001,2019_May_01_1924,MAER M R1 P1 v1,3.1.0,60.026098076194465,
,Unpleasant,,,,images/3350.jpg,,,,,,,,,0,9,9,10,,,,,,,,,,,,,,,,,,,,,,,,,,,,,,,,,,,,,,,,,,,,,,,,,,,,,,,,,,,,,,,,,,,,,,,,,773.3229066541589,779.2760557057736,779.292588117828,None,8,3.037329983303607,779.292588117828,None,779.292588117828,None,-10,7.425,782.353946917322,None,782.353946917322,None,782.353946917322,None,789.8026524813185,None,,,,,,,,,,,,,,,,,787,001,2019_May_01_1924,MAER M R1 P1 v1,3.1.0,60.026098076194465,
,Neutral,,,,images/2393.jpg,,,,,,,,,0,10,10,2,,,,,,,,,,,,,,,,,,,,,,,,,,,,,,,,,,,,,,,,,,,,,,,,,,,,,,,,,,,,,,,,,,,,,,,,,799.8146691429329,805.7855551873135,805.8023649323686,None,5,2.1362822775199675,805.8023649323686,None,805.8023649323686,None,14,7.242,807.9635753301627,None,807.9635753301627,None,807.9635753301627,None,815.2281915755066,None,,,,,,,,,,,,,,,,,787,001,2019_May_01_1924,MAER M R1 P1 v1,3.1.0,60.026098076194465,
,Pleasant,,,,images/8380.jpg,,,,,,,,,0,11,11,5,,,,,,,,,,,,,,,,,,,,,,,,,,,,,,,,,,,,,,,,,,,,,,,,,,,,,,,,,,,,,,,,,,,,,,,,,825.240570903351,831.2110110515541,831.2277150314785,None,7,3.6211820515372892,831.2277150314785,None,831.2277150314785,None,32,8.544,834.8722582568162,None,834.8722582568162,None,834.8722582568162,None,843.4394697441112,None,,,,,,,,,,,,,,,,,787,001,2019_May_01_1924,MAER M R1 P1 v1,3.1.0,60.026098076194465,
,,,,,,,,,,,,,,,,,,,,,,,,,,,,,,,,,,,,,,,,,,,,,,,,,,,,,,,,,,,,,,,,,,,,,,,,,,,,,,,,,,,,,,,,,,,,,,,,,,,,,,,,,,,,,,853.4592117673319,None,space,5.923131885813746,856.4695734450197,None,,,,,,,,,,,787,001,2019_May_01_1924,MAER M R1 P1 v1,3.1.0,60.026098076194465,
,,,,,,,,,,,,,,,,,,,,,,,,,,,,,,,,,,,,,,,,,,,,,,,,,,,,,,,,,,,,,,,,,,,,,,,,,,,,,,,,,,,,,,,,,,,,,,,,,,,,,,,,,,,,,,,,,,,,862.729163442883,None,862.729163442883,1762.4070142713817,1762.974058697845,None,space,12.946681153284771,1767.9791375274217,None,787,001,2019_May_01_1924,MAER M R1 P1 v1,3.1.0,60.026098076194465,
