PracticeImage,ImageCategory,SoundFile,CorrectAns,ReactivityImage1,PictureRatings_1,prac_reac_loop.thisRepN,prac_reac_loop.thisTrialN,prac_reac_loop.thisN,prac_reac_loop.thisIndex,reac_1_loop.thisRepN,reac_1_loop.thisTrialN,reac_1_loop.thisN,reac_1_loop.thisIndex,prt_1_loop.thisRepN,prt_1_loop.thisTrialN,prt_1_loop.thisN,prt_1_loop.thisIndex,slide1_headphones.started,slide1_headphones.stopped,slide1_headphones_resp.keys,slide1_headphones_resp.rt,slide1_headphones_resp.started,slide1_headphones_resp.stopped,reac_info_1.started,reac_info_1.stopped,reac_info_1_resp.keys,reac_info_1_resp.rt,reac_info_1_resp.started,reac_info_1_resp.stopped,reac_info_2.started,reac_info_2.stopped,reac_info_2_resp.keys,reac_info_2_resp.rt,reac_info_2_resp.started,reac_info_2_resp.stopped,reac_info_3.started,reac_info_3.stopped,reac_info_3_resp.keys,reac_info_3_resp.rt,reac_info_3_resp.started,reac_info_3_resp.stopped,blank_5seconds.started,blank_5seconds.stopped,practice_reac_image.started,practice_reac_image.stopped,practice_reac_sound.started,practice_reac_sound.stopped,practice_reac_keys.keys,practice_reac_keys.corr,practice_reac_keys.rt,practice_reac_keys.started,practice_reac_keys.stopped,blank_1second.started,blank_1second.stopped,post_prac_reac_text.started,post_prac_reac_text.stopped,post_prac_reac_resp.keys,post_prac_reac_resp.rt,post_prac_reac_resp.started,post_prac_reac_resp.stopped,reac_1_image.started,reac_1_image.stopped,reac_1_sound.started,reac_1_sound.stopped,reac_1_keys.keys,reac_1_keys.corr,reac_1_keys.rt,reac_1_keys.started,reac_1_keys.stopped,blank2_1second.started,blank2_1second.stopped,postreac1_slide1_text.started,postreac1_slide1_text.stopped,postreac1_slide1_resp.keys,postreac1_slide1_resp.rt,postreac1_slide1_resp.started,postreac1_slide1_resp.stopped,postreac1_slide2_text.started,postreac1_slide2_text.stopped,postreac1_slide2_resp.keys,postreac1_slide2_resp.rt,postreac1_slide2_resp.started,postreac1_slide2_resp.stopped,postreac1_slide3_text.started,postreac1_slide3_text.stopped,postreac1_slide3_resp.keys,postreac1_slide3_resp.rt,postreac1_slide3_resp.started,postreac1_slide3_resp.stopped,prt_1_image.started,prt_1_image.stopped,prt_1_image_intensity.started,prt_1_image_intensity.stopped,prt_1_image_intensity_resp.keys,prt_1_image_intensity_resp.rt,prt_1_image_intensity_resp.started,prt_1_image_intensity_resp.stopped,prt_1_image_intensity_text.started,prt_1_image_intensity_text.stopped,prt_1_vas.response,prt_1_vas.rt,prt_1_vas.started,prt_1_vas.stopped,prt_1_vas_guide.started,prt_1_vas_guide.stopped,prt_1_vas_instructions.started,prt_1_vas_instructions.stopped,blank_10seconds.started,blank_10seconds.stopped,pre_m_text.started,pre_m_text.stopped,pre_m_resp.keys,pre_m_resp.rt,pre_m_resp.started,pre_m_resp.stopped,m_audio_file.started,m_audio_file.stopped,m_inprogress_text.started,m_inprogress_text.stopped,pleasewait_text.started,pleasewait_text.stopped,pleasewait_resp.keys,pleasewait_resp.rt,pleasewait_resp.started,pleasewait_resp.stopped,participant,session,date,expName,psychopyVersion,frameRate,
,,,,,,,,,,,,,,,,,,8.047669226069047,None,space,81.66040607886316,8.047669226069047,None,,,,,,,,,,,,,,,,,,,,,,,,,,,,,,,,,,,,,,,,,,,,,,,,,,,,,,,,,,,,,,,,,,,,,,,,,,,,,,,,,,,,,,,,,,,,,,,,,,,,,,,792,001,2019_May_13_1217,MAER M R1 P1 v1,3.1.0,59.92793785623901,
,,,,,,,,,,,,,,,,,,,,,,,,89.72395423004309,None,space,17.95203871733065,92.72705537837828,None,,,,,,,,,,,,,,,,,,,,,,,,,,,,,,,,,,,,,,,,,,,,,,,,,,,,,,,,,,,,,,,,,,,,,,,,,,,,,,,,,,,,,,,,,,,,,,,,,792,001,2019_May_13_1217,MAER M R1 P1 v1,3.1.0,59.92793785623901,
,,,,,,,,,,,,,,,,,,,,,,,,,,,,,,110.69490691747524,None,space,23.991192931029218,113.69795488266391,None,,,,,,,,,,,,,,,,,,,,,,,,,,,,,,,,,,,,,,,,,,,,,,,,,,,,,,,,,,,,,,,,,,,,,,,,,,,,,,,,,,,,,,,,,,,792,001,2019_May_13_1217,MAER M R1 P1 v1,3.1.0,59.92793785623901,
,,,,,,,,,,,,,,,,,,,,,,,,,,,,,,,,,,,,137.70515924596657,None,space,6.890798774804352,142.71039673425548,None,,,,,,,,,,,,,,,,,,,,,,,,,,,,,,,,,,,,,,,,,,,,,,,,,,,,,,,,,,,,,,,,,,,,,,,,,,,,,,,,,,,,,792,001,2019_May_13_1217,MAER M R1 P1 v1,3.1.0,59.92793785623901,
images/7041.jpg,Neutral,sounds/low 1 second.wav,num_1,,,0,0,0,0,,,,,,,,,,,,,,,,,,,,,,,,,,,,,,,,,149.61729167380327,None,154.67798325902731,None,154.67798325902731,None,['num_1'],0,[2.3140975601254468],154.67798325902731,None,160.62813442536208,None,,,,,,,,,,,,,,,,,,,,,,,,,,,,,,,,,,,,,,,,,,,,,,,,,,,,,,,,,,,,,,,,,,,,,,,,792,001,2019_May_13_1217,MAER M R1 P1 v1,3.1.0,59.92793785623901,
images/7053.jpg,Neutral,sounds/high 1 second.wav,num_2,,,0,1,1,2,,,,,,,,,,,,,,,,,,,,,,,,,,,,,,,,,,,161.6599088014209,None,161.6599088014209,None,['num_2'],0,[1.4543003531725844],161.6599088014209,None,167.6183312991543,None,,,,,,,,,,,,,,,,,,,,,,,,,,,,,,,,,,,,,,,,,,,,,,,,,,,,,,,,,,,,,,,,,,,,,,,,792,001,2019_May_13_1217,MAER M R1 P1 v1,3.1.0,59.92793785623901,
images/7059.jpg,Neutral,sounds/high 4 second.wav,num_2,,,0,2,2,3,,,,,,,,,,,,,,,,,,,,,,,,,,,,,,,,,,,168.64634739952453,None,168.64634739952453,None,['num_2'],0,[4.662064972377266],168.64634739952453,None,174.60890646436746,None,,,,,,,,,,,,,,,,,,,,,,,,,,,,,,,,,,,,,,,,,,,,,,,,,,,,,,,,,,,,,,,,,,,,,,,,792,001,2019_May_13_1217,MAER M R1 P1 v1,3.1.0,59.92793785623901,
images/7042.jpg,Neutral,sounds/low 4 second.wav,num_1,,,0,3,3,1,,,,,,,,,,,,,,,,,,,,,,,,,,,,,,,,,,,175.64325105870557,None,175.64325105870557,None,['num_2'],0,[4.65574489156279],175.64325105870557,None,181.59915141332021,None,,,,,,,,,,,,,,,,,,,,,,,,,,,,,,,,,,,,,,,,,,,,,,,,,,,,,,,,,,,,,,,,,,,,,,,,792,001,2019_May_13_1217,MAER M R1 P1 v1,3.1.0,59.92793785623901,
,,,,,,,,,,,,,,,,,,,,,,,,,,,,,,,,,,,,,,,,,,,,,,,,,,,,,,,182.61200340612595,None,space,38.92310768655807,185.6366776818886,None,,,,,,,,,,,,,,,,,,,,,,,,,,,,,,,,,,,,,,,,,,,,,,,,,,,,,,,,,,,,,,,,,,792,001,2019_May_13_1217,MAER M R1 P1 v1,3.1.0,59.92793785623901,
,Neutral,sounds/high 1 second.wav,num_2,images/5533.jpg,,,,,,0,0,0,1,,,,,,,,,,,,,,,,,,,,,,,,,,,,,224.57549933566224,None,,,,,,,,,,,,,,,,,,229.6221259316826,None,229.6221259316826,None,num_2,1,1.6437717727894778,229.6221259316826,None,235.58647008733533,None,,,,,,,,,,,,,,,,,,,,,,,,,,,,,,,,,,,,,,,,,,,,,,,,,,,,,,,792,001,2019_May_13_1217,MAER M R1 P1 v1,3.1.0,59.92793785623901,
,Unpleasant,sounds/high 4 second.wav,num_2,images/9008.jpg,,,,,,0,1,1,37,,,,,,,,,,,,,,,,,,,,,,,,,,,,,,,,,,,,,,,,,,,,,,,,236.6081000035465,None,236.6081000035465,None,num_2,1,4.684633556102199,236.6081000035465,None,242.57695601303203,None,,,,,,,,,,,,,,,,,,,,,,,,,,,,,,,,,,,,,,,,,,,,,,,,,,,,,,,792,001,2019_May_13_1217,MAER M R1 P1 v1,3.1.0,59.92793785623901,
,Neutral,sounds/low 4 second.wav,num_1,images/9700.jpg,,,,,,0,2,2,14,,,,,,,,,,,,,,,,,,,,,,,,,,,,,,,,,,,,,,,,,,,,,,,,243.59628042481745,None,243.59628042481745,None,num_1,1,4.570032588950198,243.59628042481745,None,249.56700505570552,None,,,,,,,,,,,,,,,,,,,,,,,,,,,,,,,,,,,,,,,,,,,,,,,,,,,,,,,792,001,2019_May_13_1217,MAER M R1 P1 v1,3.1.0,59.92793785623901,
,Pleasant,sounds/low 1 second.wav,num_1,images/8510.jpg,,,,,,0,3,3,24,,,,,,,,,,,,,,,,,,,,,,,,,,,,,,,,,,,,,,,,,,,,,,,,250.5867438152818,None,250.5867438152818,None,num_1,1,1.5667358348036942,250.5867438152818,None,256.5575252349536,None,,,,,,,,,,,,,,,,,,,,,,,,,,,,,,,,,,,,,,,,,,,,,,,,,,,,,,,792,001,2019_May_13_1217,MAER M R1 P1 v1,3.1.0,59.92793785623901,
,Unpleasant,sounds/low 1 second.wav,num_1,images/9471.jpg,,,,,,0,4,4,34,,,,,,,,,,,,,,,,,,,,,,,,,,,,,,,,,,,,,,,,,,,,,,,,257.57775255835077,None,257.57775255835077,None,num_1,1,1.8834898480290576,257.57775255835077,None,263.547632268288,None,,,,,,,,,,,,,,,,,,,,,,,,,,,,,,,,,,,,,,,,,,,,,,,,,,,,,,,792,001,2019_May_13_1217,MAER M R1 P1 v1,3.1.0,59.92793785623901,
,Neutral,sounds/low 4 second.wav,num_1,images/7038.jpg,,,,,,0,5,5,6,,,,,,,,,,,,,,,,,,,,,,,,,,,,,,,,,,,,,,,,,,,,,,,,264.5741589400877,None,264.5741589400877,None,num_1,1,4.746796842184267,264.5741589400877,None,270.53815274800763,None,,,,,,,,,,,,,,,,,,,,,,,,,,,,,,,,,,,,,,,,,,,,,,,,,,,,,,,792,001,2019_May_13_1217,MAER M R1 P1 v1,3.1.0,59.92793785623901,
,Neutral,sounds/low 4 second.wav,num_1,images/5520.jpg,,,,,,0,6,6,2,,,,,,,,,,,,,,,,,,,,,,,,,,,,,,,,,,,,,,,,,,,,,,,,271.56636445418917,None,271.56636445418917,None,num_1,1,4.577609534746443,271.56636445418917,None,277.5286888521514,None,,,,,,,,,,,,,,,,,,,,,,,,,,,,,,,,,,,,,,,,,,,,,,,,,,,,,,,792,001,2019_May_13_1217,MAER M R1 P1 v1,3.1.0,59.92793785623901,
,Unpleasant,sounds/low 4 second.wav,num_1,images/2750.jpg,,,,,,0,7,7,36,,,,,,,,,,,,,,,,,,,,,,,,,,,,,,,,,,,,,,,,,,,,,,,,278.5554366696906,None,278.5554366696906,None,num_1,1,4.629162031920714,278.5554366696906,None,284.5186522609456,None,,,,,,,,,,,,,,,,,,,,,,,,,,,,,,,,,,,,,,,,,,,,,,,,,,,,,,,792,001,2019_May_13_1217,MAER M R1 P1 v1,3.1.0,59.92793785623901,
,Neutral,sounds/high 4 second.wav,num_2,images/7031.jpg,,,,,,0,8,8,3,,,,,,,,,,,,,,,,,,,,,,,,,,,,,,,,,,,,,,,,,,,,,,,,285.54559117724784,None,285.54559117724784,None,num_2,1,4.86275022369955,285.54559117724784,None,291.5092803088355,None,,,,,,,,,,,,,,,,,,,,,,,,,,,,,,,,,,,,,,,,,,,,,,,,,,,,,,,792,001,2019_May_13_1217,MAER M R1 P1 v1,3.1.0,59.92793785623901,
,Pleasant,sounds/high 1 second.wav,num_2,images/2391.jpg,,,,,,0,9,9,25,,,,,,,,,,,,,,,,,,,,,,,,,,,,,,,,,,,,,,,,,,,,,,,,292.5387035090662,None,292.5387035090662,None,num_2,1,1.6901438709264767,292.5387035090662,None,298.51613672816165,None,,,,,,,,,,,,,,,,,,,,,,,,,,,,,,,,,,,,,,,,,,,,,,,,,,,,,,,792,001,2019_May_13_1217,MAER M R1 P1 v1,3.1.0,59.92793785623901,
,Neutral,sounds/low 1 second.wav,num_1,images/7080.jpg,,,,,,0,10,10,16,,,,,,,,,,,,,,,,,,,,,,,,,,,,,,,,,,,,,,,,,,,,,,,,299.53697039952385,None,299.53697039952385,None,num_1,1,1.7992285138589068,299.53697039952385,None,305.5062131135819,None,,,,,,,,,,,,,,,,,,,,,,,,,,,,,,,,,,,,,,,,,,,,,,,,,,,,,,,792,001,2019_May_13_1217,MAER M R1 P1 v1,3.1.0,59.92793785623901,
,Neutral,sounds/high 1 second.wav,num_2,images/2570.jpg,,,,,,0,11,11,5,,,,,,,,,,,,,,,,,,,,,,,,,,,,,,,,,,,,,,,,,,,,,,,,306.53071912628184,None,306.53071912628184,None,num_2,1,1.6452401684800861,306.53071912628184,None,312.49679428819036,None,,,,,,,,,,,,,,,,,,,,,,,,,,,,,,,,,,,,,,,,,,,,,,,,,,,,,,,792,001,2019_May_13_1217,MAER M R1 P1 v1,3.1.0,59.92793785623901,
,Pleasant,sounds/high 4 second.wav,num_2,images/2311.jpg,,,,,,0,12,12,27,,,,,,,,,,,,,,,,,,,,,,,,,,,,,,,,,,,,,,,,,,,,,,,,313.516048990994,None,313.516048990994,None,num_2,1,4.754002407364169,313.516048990994,None,319.48716663631967,None,,,,,,,,,,,,,,,,,,,,,,,,,,,,,,,,,,,,,,,,,,,,,,,,,,,,,,,792,001,2019_May_13_1217,MAER M R1 P1 v1,3.1.0,59.92793785623901,
,Unpleasant,sounds/low 4 second.wav,num_1,images/2278.jpg,,,,,,0,13,13,32,,,,,,,,,,,,,,,,,,,,,,,,,,,,,,,,,,,,,,,,,,,,,,,,320.5078984484353,None,320.5078984484353,None,num_1,1,4.735305075955694,320.5078984484353,None,326.47730281522126,None,,,,,,,,,,,,,,,,,,,,,,,,,,,,,,,,,,,,,,,,,,,,,,,,,,,,,,,792,001,2019_May_13_1217,MAER M R1 P1 v1,3.1.0,59.92793785623901,
,Unpleasant,sounds/high 1 second.wav,num_2,images/9561.jpg,,,,,,0,14,14,39,,,,,,,,,,,,,,,,,,,,,,,,,,,,,,,,,,,,,,,,,,,,,,,,327.49693160286915,None,327.49693160286915,None,num_2,1,2.2342447181927128,327.49693160286915,None,333.4675531726316,None,,,,,,,,,,,,,,,,,,,,,,,,,,,,,,,,,,,,,,,,,,,,,,,,,,,,,,,792,001,2019_May_13_1217,MAER M R1 P1 v1,3.1.0,59.92793785623901,
,Neutral,sounds/high 4 second.wav,num_2,images/2190.jpg,,,,,,0,15,15,11,,,,,,,,,,,,,,,,,,,,,,,,,,,,,,,,,,,,,,,,,,,,,,,,334.49020258271776,None,334.49020258271776,None,num_2,1,4.76723299205878,334.49020258271776,None,340.458185727568,None,,,,,,,,,,,,,,,,,,,,,,,,,,,,,,,,,,,,,,,,,,,,,,,,,,,,,,,792,001,2019_May_13_1217,MAER M R1 P1 v1,3.1.0,59.92793785623901,
,Neutral,sounds/high 4 second.wav,num_2,images/5530.jpg,,,,,,0,16,16,7,,,,,,,,,,,,,,,,,,,,,,,,,,,,,,,,,,,,,,,,,,,,,,,,341.48597286998483,None,341.48597286998483,None,num_2,1,4.628242294002121,341.48597286998483,None,347.44849077047184,None,,,,,,,,,,,,,,,,,,,,,,,,,,,,,,,,,,,,,,,,,,,,,,,,,,,,,,,792,001,2019_May_13_1217,MAER M R1 P1 v1,3.1.0,59.92793785623901,
,Neutral,sounds/low 4 second.wav,num_1,images/2499.jpg,,,,,,0,17,17,18,,,,,,,,,,,,,,,,,,,,,,,,,,,,,,,,,,,,,,,,,,,,,,,,348.4772727682466,None,348.4772727682466,None,num_1,1,4.460832565633609,348.4772727682466,None,354.43869876164536,None,,,,,,,,,,,,,,,,,,,,,,,,,,,,,,,,,,,,,,,,,,,,,,,,,,,,,,,792,001,2019_May_13_1217,MAER M R1 P1 v1,3.1.0,59.92793785623901,
,Pleasant,sounds/low 1 second.wav,num_1,images/4150.jpg,,,,,,0,18,18,28,,,,,,,,,,,,,,,,,,,,,,,,,,,,,,,,,,,,,,,,,,,,,,,,355.46685998890644,None,355.46685998890644,None,num_1,1,1.5413296147198707,355.46685998890644,None,361.4290825276239,None,,,,,,,,,,,,,,,,,,,,,,,,,,,,,,,,,,,,,,,,,,,,,,,,,,,,,,,792,001,2019_May_13_1217,MAER M R1 P1 v1,3.1.0,59.92793785623901,
,Neutral,sounds/high 1 second.wav,num_2,images/5510.jpg,,,,,,0,19,19,13,,,,,,,,,,,,,,,,,,,,,,,,,,,,,,,,,,,,,,,,,,,,,,,,362.45927673324513,None,362.45927673324513,None,num_2,1,1.4392645461921347,362.45927673324513,None,368.4193578240229,None,,,,,,,,,,,,,,,,,,,,,,,,,,,,,,,,,,,,,,,,,,,,,,,,,,,,,,,792,001,2019_May_13_1217,MAER M R1 P1 v1,3.1.0,59.92793785623901,
,Neutral,sounds/high 4 second.wav,num_2,images/7045.jpg,,,,,,0,20,20,15,,,,,,,,,,,,,,,,,,,,,,,,,,,,,,,,,,,,,,,,,,,,,,,,369.4601036260101,None,369.4601036260101,None,num_2,1,4.798831292842806,369.4601036260101,None,375.4094516366895,None,,,,,,,,,,,,,,,,,,,,,,,,,,,,,,,,,,,,,,,,,,,,,,,,,,,,,,,792,001,2019_May_13_1217,MAER M R1 P1 v1,3.1.0,59.92793785623901,
,Unpleasant,sounds/high 1 second.wav,num_2,images/2700.jpg,,,,,,0,21,21,35,,,,,,,,,,,,,,,,,,,,,,,,,,,,,,,,,,,,,,,,,,,,,,,,376.43763840388056,None,376.43763840388056,None,num_2,1,1.508196814900657,376.43763840388056,None,382.3999603980865,None,,,,,,,,,,,,,,,,,,,,,,,,,,,,,,,,,,,,,,,,,,,,,,,,,,,,,,,792,001,2019_May_13_1217,MAER M R1 P1 v1,3.1.0,59.92793785623901,
,Pleasant,sounds/low 4 second.wav,num_1,images/2362.jpg,,,,,,0,22,22,26,,,,,,,,,,,,,,,,,,,,,,,,,,,,,,,,,,,,,,,,,,,,,,,,383.42688699512837,None,383.42688699512837,None,num_1,1,4.52918973523083,383.42688699512837,None,389.3904763707578,None,,,,,,,,,,,,,,,,,,,,,,,,,,,,,,,,,,,,,,,,,,,,,,,,,,,,,,,792,001,2019_May_13_1217,MAER M R1 P1 v1,3.1.0,59.92793785623901,
,Unpleasant,sounds/low 1 second.wav,num_1,images/9041.jpg,,,,,,0,23,23,38,,,,,,,,,,,,,,,,,,,,,,,,,,,,,,,,,,,,,,,,,,,,,,,,390.4197385192019,None,390.4197385192019,None,num_1,1,1.6907117587634275,390.4197385192019,None,396.3806804558244,None,,,,,,,,,,,,,,,,,,,,,,,,,,,,,,,,,,,,,,,,,,,,,,,,,,,,,,,792,001,2019_May_13_1217,MAER M R1 P1 v1,3.1.0,59.92793785623901,
,Unpleasant,sounds/low 1 second.wav,num_1,images/6311.jpg,,,,,,0,24,24,30,,,,,,,,,,,,,,,,,,,,,,,,,,,,,,,,,,,,,,,,,,,,,,,,397.4092169698106,None,397.4092169698106,None,num_1,1,1.7081366007605538,397.4092169698106,None,403.37069434353725,None,,,,,,,,,,,,,,,,,,,,,,,,,,,,,,,,,,,,,,,,,,,,,,,,,,,,,,,792,001,2019_May_13_1217,MAER M R1 P1 v1,3.1.0,59.92793785623901,
,Neutral,sounds/low 1 second.wav,num_1,images/2512.jpg,,,,,,0,25,25,4,,,,,,,,,,,,,,,,,,,,,,,,,,,,,,,,,,,,,,,,,,,,,,,,404.39713057393965,None,404.39713057393965,None,num_1,1,1.4939263043834217,404.39713057393965,None,410.3612400627153,None,,,,,,,,,,,,,,,,,,,,,,,,,,,,,,,,,,,,,,,,,,,,,,,,,,,,,,,792,001,2019_May_13_1217,MAER M R1 P1 v1,3.1.0,59.92793785623901,
,Pleasant,sounds/low 1 second.wav,num_1,images/1605.jpg,,,,,,0,26,26,20,,,,,,,,,,,,,,,,,,,,,,,,,,,,,,,,,,,,,,,,,,,,,,,,411.39933151489095,None,411.39933151489095,None,num_1,1,1.6318650578323286,411.39933151489095,None,417.3514144012752,None,,,,,,,,,,,,,,,,,,,,,,,,,,,,,,,,,,,,,,,,,,,,,,,,,,,,,,,792,001,2019_May_13_1217,MAER M R1 P1 v1,3.1.0,59.92793785623901,
,Pleasant,sounds/high 1 second.wav,num_2,images/2360.jpg,,,,,,0,27,27,21,,,,,,,,,,,,,,,,,,,,,,,,,,,,,,,,,,,,,,,,,,,,,,,,418.3802561925313,None,418.3802561925313,None,num_2,1,1.574460311250732,418.3802561925313,None,424.3417942611486,None,,,,,,,,,,,,,,,,,,,,,,,,,,,,,,,,,,,,,,,,,,,,,,,,,,,,,,,792,001,2019_May_13_1217,MAER M R1 P1 v1,3.1.0,59.92793785623901,
,Neutral,sounds/low 1 second.wav,num_1,images/2383.jpg,,,,,,0,28,28,0,,,,,,,,,,,,,,,,,,,,,,,,,,,,,,,,,,,,,,,,,,,,,,,,425.36970699992344,None,425.36970699992344,None,num_1,1,1.6586882932770095,425.36970699992344,None,431.3320292945991,None,,,,,,,,,,,,,,,,,,,,,,,,,,,,,,,,,,,,,,,,,,,,,,,,,,,,,,,792,001,2019_May_13_1217,MAER M R1 P1 v1,3.1.0,59.92793785623901,
,Unpleasant,sounds/high 4 second.wav,num_2,images/2490.jpg,,,,,,0,29,29,33,,,,,,,,,,,,,,,,,,,,,,,,,,,,,,,,,,,,,,,,,,,,,,,,432.3611817715828,None,432.3611817715828,None,num_2,1,4.861015311338633,432.3611817715828,None,438.32246684466554,None,,,,,,,,,,,,,,,,,,,,,,,,,,,,,,,,,,,,,,,,,,,,,,,,,,,,,,,792,001,2019_May_13_1217,MAER M R1 P1 v1,3.1.0,59.92793785623901,
,Pleasant,sounds/high 1 second.wav,num_2,images/1900.jpg,,,,,,0,30,30,29,,,,,,,,,,,,,,,,,,,,,,,,,,,,,,,,,,,,,,,,,,,,,,,,439.3525309468823,None,439.3525309468823,None,num_2,1,1.6563614554979722,439.3525309468823,None,445.3126556057741,None,,,,,,,,,,,,,,,,,,,,,,,,,,,,,,,,,,,,,,,,,,,,,,,,,,,,,,,792,001,2019_May_13_1217,MAER M R1 P1 v1,3.1.0,59.92793785623901,
,Pleasant,sounds/high 4 second.wav,num_2,images/1441.jpg,,,,,,0,31,31,23,,,,,,,,,,,,,,,,,,,,,,,,,,,,,,,,,,,,,,,,,,,,,,,,446.34577969197017,None,446.34577969197017,None,num_2,1,4.507489208628613,446.34577969197017,None,452.30337078989396,None,,,,,,,,,,,,,,,,,,,,,,,,,,,,,,,,,,,,,,,,,,,,,,,,,,,,,,,792,001,2019_May_13_1217,MAER M R1 P1 v1,3.1.0,59.92793785623901,
,Neutral,sounds/low 4 second.wav,num_1,images/7175.jpg,,,,,,0,32,32,10,,,,,,,,,,,,,,,,,,,,,,,,,,,,,,,,,,,,,,,,,,,,,,,,453.3317279234361,None,453.3317279234361,None,num_1,1,4.477607491553499,453.3317279234361,None,459.29330986063724,None,,,,,,,,,,,,,,,,,,,,,,,,,,,,,,,,,,,,,,,,,,,,,,,,,,,,,,,792,001,2019_May_13_1217,MAER M R1 P1 v1,3.1.0,59.92793785623901,
,Neutral,sounds/low 1 second.wav,num_1,images/7170.jpg,,,,,,0,33,33,8,,,,,,,,,,,,,,,,,,,,,,,,,,,,,,,,,,,,,,,,,,,,,,,,460.3197887577444,None,460.3197887577444,None,num_1,1,1.5435798327107477,460.3197887577444,None,466.2837344905038,None,,,,,,,,,,,,,,,,,,,,,,,,,,,,,,,,,,,,,,,,,,,,,,,,,,,,,,,792,001,2019_May_13_1217,MAER M R1 P1 v1,3.1.0,59.92793785623901,
,Neutral,sounds/high 4 second.wav,num_2,images/7025.jpg,,,,,,0,34,34,19,,,,,,,,,,,,,,,,,,,,,,,,,,,,,,,,,,,,,,,,,,,,,,,,467.31324392555325,None,467.31324392555325,None,num_2,1,4.4765958098887495,467.31324392555325,None,473.27423153357995,None,,,,,,,,,,,,,,,,,,,,,,,,,,,,,,,,,,,,,,,,,,,,,,,,,,,,,,,792,001,2019_May_13_1217,MAER M R1 P1 v1,3.1.0,59.92793785623901,
,Pleasant,sounds/low 4 second.wav,num_1,images/2306.jpg,,,,,,0,35,35,22,,,,,,,,,,,,,,,,,,,,,,,,,,,,,,,,,,,,,,,,,,,,,,,,474.30794363908535,None,474.30794363908535,None,num_1,1,4.472300594748958,474.30794363908535,None,480.2812574178479,None,,,,,,,,,,,,,,,,,,,,,,,,,,,,,,,,,,,,,,,,,,,,,,,,,,,,,,,792,001,2019_May_13_1217,MAER M R1 P1 v1,3.1.0,59.92793785623901,
,Unpleasant,sounds/high 1 second.wav,num_2,images/9280.jpg,,,,,,0,36,36,31,,,,,,,,,,,,,,,,,,,,,,,,,,,,,,,,,,,,,,,,,,,,,,,,481.3096911711782,None,481.3096911711782,None,num_2,1,2.0086174725565797,481.3096911711782,None,487.27144197237976,None,,,,,,,,,,,,,,,,,,,,,,,,,,,,,,,,,,,,,,,,,,,,,,,,,,,,,,,792,001,2019_May_13_1217,MAER M R1 P1 v1,3.1.0,59.92793785623901,
,Neutral,sounds/low 1 second.wav,num_1,images/7056.jpg,,,,,,0,37,37,12,,,,,,,,,,,,,,,,,,,,,,,,,,,,,,,,,,,,,,,,,,,,,,,,488.3097173120459,None,488.3097173120459,None,num_1,1,1.6654389472496405,488.3097173120459,None,494.2616057944997,None,,,,,,,,,,,,,,,,,,,,,,,,,,,,,,,,,,,,,,,,,,,,,,,,,,,,,,,792,001,2019_May_13_1217,MAER M R1 P1 v1,3.1.0,59.92793785623901,
,Neutral,sounds/high 1 second.wav,num_2,images/2210.jpg,,,,,,0,38,38,17,,,,,,,,,,,,,,,,,,,,,,,,,,,,,,,,,,,,,,,,,,,,,,,,495.28952123750423,None,495.28952123750423,None,num_2,1,1.5918908621733863,495.28952123750423,None,501.25221641514327,None,,,,,,,,,,,,,,,,,,,,,,,,,,,,,,,,,,,,,,,,,,,,,,,,,,,,,,,792,001,2019_May_13_1217,MAER M R1 P1 v1,3.1.0,59.92793785623901,
,Neutral,sounds/high 1 second.wav,num_2,images/7235.jpg,,,,,,0,39,39,9,,,,,,,,,,,,,,,,,,,,,,,,,,,,,,,,,,,,,,,,,,,,,,,,502.2800870881547,None,502.2800870881547,None,num_2,1,1.4915255510459247,502.2800870881547,None,508.2423360682096,None,,,,,,,,,,,,,,,,,,,,,,,,,,,,,,,,,,,,,,,,,,,,,,,,,,,,,,,792,001,2019_May_13_1217,MAER M R1 P1 v1,3.1.0,59.92793785623901,
,,,,,,,,,,,,,,,,,,,,,,,,,,,,,,,,,,,,,,,,,,,,,,,,,,,,,,,,,,,,,,,,,,,,,,,,509.26844508704926,None,space,3.8542138779757806,512.2799449659597,None,,,,,,,,,,,,,,,,,,,,,,,,,,,,,,,,,,,,,,,,,,,,,,,,,792,001,2019_May_13_1217,MAER M R1 P1 v1,3.1.0,59.92793785623901,
,,,,,,,,,,,,,,,,,,,,,,,,,,,,,,,,,,,,,,,,,,,,,,,,,,,,,,,,,,,,,,,,,,,,,,,,,,,,,,516.1503487552454,None,space,7.975351564635275,521.1551884215787,None,,,,,,,,,,,,,,,,,,,,,,,,,,,,,,,,,,,,,,,,,,,792,001,2019_May_13_1217,MAER M R1 P1 v1,3.1.0,59.92793785623901,
,,,,,,,,,,,,,,,,,,,,,,,,,,,,,,,,,,,,,,,,,,,,,,,,,,,,,,,,,,,,,,,,,,,,,,,,,,,,,,,,,,,,529.1465135592989,None,space,1.3517545330378198,532.1496534682337,None,,,,,,,,,,,,,,,,,,,,,,,,,,,,,,,,,,,,,792,001,2019_May_13_1217,MAER M R1 P1 v1,3.1.0,59.92793785623901,
,Pleasant,,,,images/1721.jpg,,,,,,,,,0,0,0,4,,,,,,,,,,,,,,,,,,,,,,,,,533.5177736873829,None,,,,,,,,,,,,,,,,,,,,,,,,,,,,,,,,,,,,,,,,,,,,,,,538.5427640573271,544.5117255316964,544.5287321197975,None,num_5,4.321550411914359,544.5287321197975,None,544.5287321197975,None,15,24.605,548.8724226455652,None,548.8724226455652,None,548.8724226455652,None,573.4908398790667,None,,,,,,,,,,,,,,,,,792,001,2019_May_13_1217,MAER M R1 P1 v1,3.1.0,59.92793785623901,
,Unpleasant,,,,images/2276.jpg,,,,,,,,,0,1,1,9,,,,,,,,,,,,,,,,,,,,,,,,,,,,,,,,,,,,,,,,,,,,,,,,,,,,,,,,,,,,,,,,,,,,,,,,,583.512509156817,589.4735033751767,589.490361230748,None,num_6,10.811380412136714,589.490361230748,None,589.490361230748,None,16,19.043,600.3203680634306,None,600.3203680634306,None,600.3203680634306,None,619.3867968181457,None,,,,,,,,,,,,,,,,,792,001,2019_May_13_1217,MAER M R1 P1 v1,3.1.0,59.92793785623901,
,Neutral,,,,images/2745.jpg,,,,,,,,,0,2,2,3,,,,,,,,,,,,,,,,,,,,,,,,,,,,,,,,,,,,,,,,,,,,,,,,,,,,,,,,,,,,,,,,,,,,,,,,,629.4048376231403,635.3695507556513,635.3861444983086,None,num_2,4.438725503452588,635.3861444983086,None,635.3861444983086,None,15,10.634,639.8447707145351,None,639.8447707145351,None,639.8447707145351,None,650.5011471935231,None,,,,,,,,,,,,,,,,,792,001,2019_May_13_1217,MAER M R1 P1 v1,3.1.0,59.92793785623901,
,Unpleasant,,,,images/3500.jpg,,,,,,,,,0,3,3,11,,,,,,,,,,,,,,,,,,,,,,,,,,,,,,,,,,,,,,,,,,,,,,,,,,,,,,,,,,,,,,,,,,,,,,,,,660.5223405271809,666.4839594221612,666.5009134280535,None,num_7,12.712725675319234,666.5009134280535,None,666.5009134280535,None,15,11.352,679.2329860503924,None,679.2329860503924,None,679.2329860503924,None,690.6079894306768,None,,,,,,,,,,,,,,,,,792,001,2019_May_13_1217,MAER M R1 P1 v1,3.1.0,59.92793785623901,
,Pleasant,,,,images/2389.jpg,,,,,,,,,0,4,4,7,,,,,,,,,,,,,,,,,,,,,,,,,,,,,,,,,,,,,,,,,,,,,,,,,,,,,,,,,,,,,,,,,,,,,,,,,700.6305682303719,706.5908905983615,706.6075618622162,None,num_5,2.703367845289904,706.6075618622162,None,706.6075618622162,None,12,5.88,709.3298614053219,None,709.3298614053219,None,709.3298614053219,None,715.2325022940877,None,,,,,,,,,,,,,,,,,792,001,2019_May_13_1217,MAER M R1 P1 v1,3.1.0,59.92793785623901,
,Unpleasant,,,,images/2205.jpg,,,,,,,,,0,5,5,8,,,,,,,,,,,,,,,,,,,,,,,,,,,,,,,,,,,,,,,,,,,,,,,,,,,,,,,,,,,,,,,,,,,,,,,,,725.2496068353266,731.2153980533167,731.232151946353,None,num_7,4.454913611940356,731.232151946353,None,731.232151946353,None,10,16.174,735.7057749084925,None,735.7057749084925,None,735.7057749084925,None,751.9025017712702,None,,,,,,,,,,,,,,,,,792,001,2019_May_13_1217,MAER M R1 P1 v1,3.1.0,59.92793785623901,
,Neutral,,,,images/7513.jpg,,,,,,,,,0,6,6,0,,,,,,,,,,,,,,,,,,,,,,,,,,,,,,,,,,,,,,,,,,,,,,,,,,,,,,,,,,,,,,,,,,,,,,,,,761.937114685099,767.8854687418316,767.9021487193077,None,num_3,4.171527365882866,767.9021487193077,None,767.9021487193077,None,15,8.998,772.0934247602709,None,772.0934247602709,None,772.0934247602709,None,781.1148602725516,None,,,,,,,,,,,,,,,,,792,001,2019_May_13_1217,MAER M R1 P1 v1,3.1.0,59.92793785623901,
,Unpleasant,,,,images/3350.jpg,,,,,,,,,0,7,7,10,,,,,,,,,,,,,,,,,,,,,,,,,,,,,,,,,,,,,,,,,,,,,,,,,,,,,,,,,,,,,,,,,,,,,,,,,791.1266930719485,797.0980396752293,797.114557399038,None,num_7,4.68854777559136,797.114557399038,None,797.114557399038,None,10,6.797,801.8216219237165,None,801.8216219237165,None,801.8216219237165,None,808.6423301189079,None,,,,,,,,,,,,,,,,,792,001,2019_May_13_1217,MAER M R1 P1 v1,3.1.0,59.92793785623901,
,Neutral,,,,images/2393.jpg,,,,,,,,,0,8,8,2,,,,,,,,,,,,,,,,,,,,,,,,,,,,,,,,,,,,,,,,,,,,,,,,,,,,,,,,,,,,,,,,,,,,,,,,,818.6643094814444,824.6254440191806,824.6419680528543,None,num_3,3.5706897163017857,824.6419680528543,None,824.6419680528543,None,15,9.369,828.2310735604042,None,828.2310735604042,None,828.2310735604042,None,837.621479320771,None,,,,,,,,,,,,,,,,,792,001,2019_May_13_1217,MAER M R1 P1 v1,3.1.0,59.92793785623901,
,Pleasant,,,,images/8380.jpg,,,,,,,,,0,9,9,5,,,,,,,,,,,,,,,,,,,,,,,,,,,,,,,,,,,,,,,,,,,,,,,,,,,,,,,,,,,,,,,,,,,,,,,,,847.641675996254,853.6045541599742,853.6211337805526,None,num_6,4.68890082755388,853.6211337805526,None,853.6211337805526,None,20,8.329,858.3325980838454,None,858.3325980838454,None,858.3325980838454,None,866.683785029516,None,,,,,,,,,,,,,,,,,792,001,2019_May_13_1217,MAER M R1 P1 v1,3.1.0,59.92793785623901,
,Neutral,,,,images/7180.jpg,,,,,,,,,0,10,10,1,,,,,,,,,,,,,,,,,,,,,,,,,,,,,,,,,,,,,,,,,,,,,,,,,,,,,,,,,,,,,,,,,,,,,,,,,876.7018414589384,882.6667595118215,882.6834232639321,None,num_5,2.1026125244206924,882.6834232639321,None,882.6834232639321,None,19,8.783,884.804565758106,None,884.804565758106,None,884.804565758106,None,893.6109451516513,None,,,,,,,,,,,,,,,,,792,001,2019_May_13_1217,MAER M R1 P1 v1,3.1.0,59.92793785623901,
,Pleasant,,,,images/1650.jpg,,,,,,,,,0,11,11,6,,,,,,,,,,,,,,,,,,,,,,,,,,,,,,,,,,,,,,,,,,,,,,,,,,,,,,,,,,,,,,,,,,,,,,,,,903.6348520276606,909.5939701128755,909.6104439681003,None,num_5,2.1529042505062534,909.6104439681003,None,909.6104439681003,None,15,4.745,911.7815747139084,None,911.7815747139084,None,911.7815747139084,None,916.5504897356532,None,,,,,,,,,,,,,,,,,792,001,2019_May_13_1217,MAER M R1 P1 v1,3.1.0,59.92793785623901,
,,,,,,,,,,,,,,,,,,,,,,,,,,,,,,,,,,,,,,,,,,,,,,,,,,,,,,,,,,,,,,,,,,,,,,,,,,,,,,,,,,,,,,,,,,,,,,,,,,,,,,,,,,,,,,926.5708910310386,None,space,8.475365987183977,929.5969973456504,None,,,,,,,,,,,792,001,2019_May_13_1217,MAER M R1 P1 v1,3.1.0,59.92793785623901,
,,,,,,,,,,,,,,,,,,,,,,,,,,,,,,,,,,,,,,,,,,,,,,,,,,,,,,,,,,,,,,,,,,,,,,,,,,,,,,,,,,,,,,,,,,,,,,,,,,,,,,,,,,,,,,,,,,,,938.4446748045902,None,938.4446748045902,1838.088756662166,1838.689237654149,None,space,14.214942841637821,1843.694348043733,None,792,001,2019_May_13_1217,MAER M R1 P1 v1,3.1.0,59.92793785623901,
