PracticeImage,ImageCategory,SoundFile,CorrectAns,ReactivityImage1,PictureRatings_1,prac_reac_loop.thisRepN,prac_reac_loop.thisTrialN,prac_reac_loop.thisN,prac_reac_loop.thisIndex,reac_1_loop.thisRepN,reac_1_loop.thisTrialN,reac_1_loop.thisN,reac_1_loop.thisIndex,prt_1_loop.thisRepN,prt_1_loop.thisTrialN,prt_1_loop.thisN,prt_1_loop.thisIndex,slide1_headphones.started,slide1_headphones.stopped,slide1_headphones_resp.keys,slide1_headphones_resp.rt,slide1_headphones_resp.started,slide1_headphones_resp.stopped,reac_info_1.started,reac_info_1.stopped,reac_info_1_resp.keys,reac_info_1_resp.rt,reac_info_1_resp.started,reac_info_1_resp.stopped,reac_info_2.started,reac_info_2.stopped,reac_info_2_resp.keys,reac_info_2_resp.rt,reac_info_2_resp.started,reac_info_2_resp.stopped,reac_info_3.started,reac_info_3.stopped,reac_info_3_resp.keys,reac_info_3_resp.rt,reac_info_3_resp.started,reac_info_3_resp.stopped,blank_5seconds.started,blank_5seconds.stopped,practice_reac_image.started,practice_reac_image.stopped,practice_reac_sound.started,practice_reac_sound.stopped,practice_reac_keys.keys,practice_reac_keys.corr,practice_reac_keys.rt,practice_reac_keys.started,practice_reac_keys.stopped,blank_1second.started,blank_1second.stopped,post_prac_reac_text.started,post_prac_reac_text.stopped,post_prac_reac_resp.keys,post_prac_reac_resp.rt,post_prac_reac_resp.started,post_prac_reac_resp.stopped,reac_1_image.started,reac_1_image.stopped,reac_1_sound.started,reac_1_sound.stopped,reac_1_keys.keys,reac_1_keys.corr,reac_1_keys.rt,reac_1_keys.started,reac_1_keys.stopped,blank2_1second.started,blank2_1second.stopped,postreac1_slide1_text.started,postreac1_slide1_text.stopped,postreac1_slide1_resp.keys,postreac1_slide1_resp.rt,postreac1_slide1_resp.started,postreac1_slide1_resp.stopped,postreac1_slide2_text.started,postreac1_slide2_text.stopped,postreac1_slide2_resp.keys,postreac1_slide2_resp.rt,postreac1_slide2_resp.started,postreac1_slide2_resp.stopped,postreac1_slide3_text.started,postreac1_slide3_text.stopped,postreac1_slide3_resp.keys,postreac1_slide3_resp.rt,postreac1_slide3_resp.started,postreac1_slide3_resp.stopped,prt_1_image.started,prt_1_image.stopped,prt_1_image_intensity.started,prt_1_image_intensity.stopped,prt_1_image_intensity_resp.keys,prt_1_image_intensity_resp.rt,prt_1_image_intensity_resp.started,prt_1_image_intensity_resp.stopped,prt_1_image_intensity_text.started,prt_1_image_intensity_text.stopped,prt_1_vas.response,prt_1_vas.rt,prt_1_vas.started,prt_1_vas.stopped,prt_1_vas_guide.started,prt_1_vas_guide.stopped,prt_1_vas_instructions.started,prt_1_vas_instructions.stopped,blank_10seconds.started,blank_10seconds.stopped,pre_m_text.started,pre_m_text.stopped,pre_m_resp.keys,pre_m_resp.rt,pre_m_resp.started,pre_m_resp.stopped,m_audio_file.started,m_audio_file.stopped,m_inprogress_text.started,m_inprogress_text.stopped,pleasewait_text.started,pleasewait_text.stopped,pleasewait_resp.keys,pleasewait_resp.rt,pleasewait_resp.started,pleasewait_resp.stopped,participant,session,date,expName,psychopyVersion,frameRate,
,,,,,,,,,,,,,,,,,,11.192936631963448,None,space,22.200882838375605,11.192936631963448,None,,,,,,,,,,,,,,,,,,,,,,,,,,,,,,,,,,,,,,,,,,,,,,,,,,,,,,,,,,,,,,,,,,,,,,,,,,,,,,,,,,,,,,,,,,,,,,,,,,,,,,,802,001,2019_May_06_0922,MAER M R1 P1 v1,3.1.0,59.95894196748831,
,,,,,,,,,,,,,,,,,,,,,,,,33.40978459669077,None,space,13.798161369345962,36.41268592653705,None,,,,,,,,,,,,,,,,,,,,,,,,,,,,,,,,,,,,,,,,,,,,,,,,,,,,,,,,,,,,,,,,,,,,,,,,,,,,,,,,,,,,,,,,,,,,,,,,,802,001,2019_May_06_0922,MAER M R1 P1 v1,3.1.0,59.95894196748831,
,,,,,,,,,,,,,,,,,,,,,,,,,,,,,,50.226552215974834,None,space,24.590953055004775,53.22953857858272,None,,,,,,,,,,,,,,,,,,,,,,,,,,,,,,,,,,,,,,,,,,,,,,,,,,,,,,,,,,,,,,,,,,,,,,,,,,,,,,,,,,,,,,,,,,,802,001,2019_May_06_0922,MAER M R1 P1 v1,3.1.0,59.95894196748831,
,,,,,,,,,,,,,,,,,,,,,,,,,,,,,,,,,,,,77.83683985807045,None,space,28.045797203173265,82.84196856552137,None,,,,,,,,,,,,,,,,,,,,,,,,,,,,,,,,,,,,,,,,,,,,,,,,,,,,,,,,,,,,,,,,,,,,,,,,,,,,,,,,,,,,,802,001,2019_May_06_0922,MAER M R1 P1 v1,3.1.0,59.95894196748831,
images/7053.jpg,Neutral,sounds/high 1 second.wav,num_2,,,0,0,0,2,,,,,,,,,,,,,,,,,,,,,,,,,,,,,,,,,110.9036825195177,None,115.96619361809599,None,115.96619361809599,None,['num_1'],0,[3.1633109774290915],115.96619361809599,None,121.91483142630591,None,,,,,,,,,,,,,,,,,,,,,,,,,,,,,,,,,,,,,,,,,,,,,,,,,,,,,,,,,,,,,,,,,,,,,,,,802,001,2019_May_06_0922,MAER M R1 P1 v1,3.1.0,59.95894196748831,
images/7042.jpg,Neutral,sounds/low 4 second.wav,num_1,,,0,1,1,1,,,,,,,,,,,,,,,,,,,,,,,,,,,,,,,,,,,122.95699145075207,None,122.95699145075207,None,['num_1'],0,[5.598372839514241],122.95699145075207,None,128.90493908138774,None,,,,,,,,,,,,,,,,,,,,,,,,,,,,,,,,,,,,,,,,,,,,,,,,,,,,,,,,,,,,,,,,,,,,,,,,802,001,2019_May_06_0922,MAER M R1 P1 v1,3.1.0,59.95894196748831,
images/7041.jpg,Neutral,sounds/low 1 second.wav,num_1,,,0,2,2,0,,,,,,,,,,,,,,,,,,,,,,,,,,,,,,,,,,,129.94399616120654,None,129.94399616120654,None,['num_1'],0,[2.214594446308979],129.94399616120654,None,135.8954463604025,None,,,,,,,,,,,,,,,,,,,,,,,,,,,,,,,,,,,,,,,,,,,,,,,,,,,,,,,,,,,,,,,,,,,,,,,,802,001,2019_May_06_0922,MAER M R1 P1 v1,3.1.0,59.95894196748831,
images/7059.jpg,Neutral,sounds/high 4 second.wav,num_2,,,0,3,3,3,,,,,,,,,,,,,,,,,,,,,,,,,,,,,,,,,,,136.92854603893056,None,136.92854603893056,None,['num_2'],0,[5.340592567175236],136.92854603893056,None,142.8857514236979,None,,,,,,,,,,,,,,,,,,,,,,,,,,,,,,,,,,,,,,,,,,,,,,,,,,,,,,,,,,,,,,,,,,,,,,,,802,001,2019_May_06_0922,MAER M R1 P1 v1,3.1.0,59.95894196748831,
,,,,,,,,,,,,,,,,,,,,,,,,,,,,,,,,,,,,,,,,,,,,,,,,,,,,,,,143.90478494072795,None,space,27.1444652536004,146.9230086934731,None,,,,,,,,,,,,,,,,,,,,,,,,,,,,,,,,,,,,,,,,,,,,,,,,,,,,,,,,,,,,,,,,,,802,001,2019_May_06_0922,MAER M R1 P1 v1,3.1.0,59.95894196748831,
,Pleasant,sounds/low 1 second.wav,num_1,images/8510.jpg,,,,,,0,0,0,24,,,,,,,,,,,,,,,,,,,,,,,,,,,,,174.08341894199407,None,,,,,,,,,,,,,,,,,,179.12218216301108,None,179.12218216301108,None,num_1,1,3.7871651008720164,179.12218216301108,None,185.0943277739534,None,,,,,,,,,,,,,,,,,,,,,,,,,,,,,,,,,,,,,,,,,,,,,,,,,,,,,,,802,001,2019_May_06_0922,MAER M R1 P1 v1,3.1.0,59.95894196748831,
,Neutral,sounds/high 1 second.wav,num_2,images/2210.jpg,,,,,,0,1,1,17,,,,,,,,,,,,,,,,,,,,,,,,,,,,,,,,,,,,,,,,,,,,,,,,186.13166286523142,None,186.13166286523142,None,num_2,1,2.3502917104476637,186.13166286523142,None,192.0848816256821,None,,,,,,,,,,,,,,,,,,,,,,,,,,,,,,,,,,,,,,,,,,,,,,,,,,,,,,,802,001,2019_May_06_0922,MAER M R1 P1 v1,3.1.0,59.95894196748831,
,Neutral,sounds/high 1 second.wav,num_2,images/5510.jpg,,,,,,0,2,2,13,,,,,,,,,,,,,,,,,,,,,,,,,,,,,,,,,,,,,,,,,,,,,,,,193.12177021984417,None,193.12177021984417,None,num_2,1,1.966480566107748,193.12177021984417,None,199.07505267974898,None,,,,,,,,,,,,,,,,,,,,,,,,,,,,,,,,,,,,,,,,,,,,,,,,,,,,,,,802,001,2019_May_06_0922,MAER M R1 P1 v1,3.1.0,59.95894196748831,
,Unpleasant,sounds/high 4 second.wav,num_2,images/9008.jpg,,,,,,0,3,3,37,,,,,,,,,,,,,,,,,,,,,,,,,,,,,,,,,,,,,,,,,,,,,,,,200.09927710133843,None,200.09927710133843,None,num_1,0,5.399442149027436,200.09927710133843,None,206.0654304565719,None,,,,,,,,,,,,,,,,,,,,,,,,,,,,,,,,,,,,,,,,,,,,,,,,,,,,,,,802,001,2019_May_06_0922,MAER M R1 P1 v1,3.1.0,59.95894196748831,
,Pleasant,sounds/high 4 second.wav,num_2,images/2311.jpg,,,,,,0,4,4,27,,,,,,,,,,,,,,,,,,,,,,,,,,,,,,,,,,,,,,,,,,,,,,,,207.09135222823397,None,207.09135222823397,None,num_2,1,5.080323208625714,207.09135222823397,None,213.05595456185733,None,,,,,,,,,,,,,,,,,,,,,,,,,,,,,,,,,,,,,,,,,,,,,,,,,,,,,,,802,001,2019_May_06_0922,MAER M R1 P1 v1,3.1.0,59.95894196748831,
,Neutral,sounds/low 4 second.wav,num_1,images/2499.jpg,,,,,,0,5,5,18,,,,,,,,,,,,,,,,,,,,,,,,,,,,,,,,,,,,,,,,,,,,,,,,214.09465288154388,None,214.09465288154388,None,num_1,1,5.334905588094671,214.09465288154388,None,220.04607032960553,None,,,,,,,,,,,,,,,,,,,,,,,,,,,,,,,,,,,,,,,,,,,,,,,,,,,,,,,802,001,2019_May_06_0922,MAER M R1 P1 v1,3.1.0,59.95894196748831,
,Neutral,sounds/high 4 second.wav,num_2,images/7045.jpg,,,,,,0,6,6,15,,,,,,,,,,,,,,,,,,,,,,,,,,,,,,,,,,,,,,,,,,,,,,,,221.09543530313886,None,221.09543530313886,None,num_1,0,5.391188562703064,221.09543530313886,None,227.03643188109595,None,,,,,,,,,,,,,,,,,,,,,,,,,,,,,,,,,,,,,,,,,,,,,,,,,,,,,,,802,001,2019_May_06_0922,MAER M R1 P1 v1,3.1.0,59.95894196748831,
,Neutral,sounds/high 4 second.wav,num_2,images/7025.jpg,,,,,,0,7,7,19,,,,,,,,,,,,,,,,,,,,,,,,,,,,,,,,,,,,,,,,,,,,,,,,228.0692551280315,None,228.0692551280315,None,num_2,1,4.94057111367988,228.0692551280315,None,234.02671380826882,None,,,,,,,,,,,,,,,,,,,,,,,,,,,,,,,,,,,,,,,,,,,,,,,,,,,,,,,802,001,2019_May_06_0922,MAER M R1 P1 v1,3.1.0,59.95894196748831,
,Neutral,sounds/high 4 second.wav,num_2,images/2190.jpg,,,,,,0,8,8,11,,,,,,,,,,,,,,,,,,,,,,,,,,,,,,,,,,,,,,,,,,,,,,,,235.06264691062165,None,235.06264691062165,None,num_2,1,4.953842834818033,235.06264691062165,None,241.03343650441434,None,,,,,,,,,,,,,,,,,,,,,,,,,,,,,,,,,,,,,,,,,,,,,,,,,,,,,,,802,001,2019_May_06_0922,MAER M R1 P1 v1,3.1.0,59.95894196748831,
,Neutral,sounds/low 1 second.wav,num_1,images/7056.jpg,,,,,,0,9,9,12,,,,,,,,,,,,,,,,,,,,,,,,,,,,,,,,,,,,,,,,,,,,,,,,242.05897607935276,None,242.05897607935276,None,num_1,1,2.262529487288475,242.05897607935276,None,248.0237421686479,None,,,,,,,,,,,,,,,,,,,,,,,,,,,,,,,,,,,,,,,,,,,,,,,,,,,,,,,802,001,2019_May_06_0922,MAER M R1 P1 v1,3.1.0,59.95894196748831,
,Neutral,sounds/low 4 second.wav,num_1,images/7038.jpg,,,,,,0,10,10,6,,,,,,,,,,,,,,,,,,,,,,,,,,,,,,,,,,,,,,,,,,,,,,,,249.04852275858298,None,249.04852275858298,None,num_1,1,4.832099957664013,249.04852275858298,None,255.03062291155175,None,,,,,,,,,,,,,,,,,,,,,,,,,,,,,,,,,,,,,,,,,,,,,,,,,,,,,,,802,001,2019_May_06_0922,MAER M R1 P1 v1,3.1.0,59.95894196748831,
,Pleasant,sounds/low 1 second.wav,num_1,images/1605.jpg,,,,,,0,11,11,20,,,,,,,,,,,,,,,,,,,,,,,,,,,,,,,,,,,,,,,,,,,,,,,,256.07299296391466,None,256.07299296391466,None,num_1,1,1.8277692962021774,256.07299296391466,None,262.0378801422662,None,,,,,,,,,,,,,,,,,,,,,,,,,,,,,,,,,,,,,,,,,,,,,,,,,,,,,,,802,001,2019_May_06_0922,MAER M R1 P1 v1,3.1.0,59.95894196748831,
,Unpleasant,sounds/high 1 second.wav,num_2,images/2700.jpg,,,,,,0,12,12,35,,,,,,,,,,,,,,,,,,,,,,,,,,,,,,,,,,,,,,,,,,,,,,,,263.0793049187696,None,263.0793049187696,None,num_2,1,1.6622020961326598,263.0793049187696,None,269.0283219190121,None,,,,,,,,,,,,,,,,,,,,,,,,,,,,,,,,,,,,,,,,,,,,,,,,,,,,,,,802,001,2019_May_06_0922,MAER M R1 P1 v1,3.1.0,59.95894196748831,
,Neutral,sounds/high 1 second.wav,num_2,images/5533.jpg,,,,,,0,13,13,1,,,,,,,,,,,,,,,,,,,,,,,,,,,,,,,,,,,,,,,,,,,,,,,,270.0649590205187,None,270.0649590205187,None,num_2,1,1.7499198498614987,270.0649590205187,None,276.0187123155383,None,,,,,,,,,,,,,,,,,,,,,,,,,,,,,,,,,,,,,,,,,,,,,,,,,,,,,,,802,001,2019_May_06_0922,MAER M R1 P1 v1,3.1.0,59.95894196748831,
,Pleasant,sounds/low 4 second.wav,num_1,images/2306.jpg,,,,,,0,14,14,22,,,,,,,,,,,,,,,,,,,,,,,,,,,,,,,,,,,,,,,,,,,,,,,,277.06125633952297,None,277.06125633952297,None,num_1,1,4.531029596508915,277.06125633952297,None,283.0088542241001,None,,,,,,,,,,,,,,,,,,,,,,,,,,,,,,,,,,,,,,,,,,,,,,,,,,,,,,,802,001,2019_May_06_0922,MAER M R1 P1 v1,3.1.0,59.95894196748831,
,Unpleasant,sounds/low 1 second.wav,num_1,images/9471.jpg,,,,,,0,15,15,34,,,,,,,,,,,,,,,,,,,,,,,,,,,,,,,,,,,,,,,,,,,,,,,,284.04620313695773,None,284.04620313695773,None,num_1,1,1.8497588284587891,284.04620313695773,None,290.0159065348728,None,,,,,,,,,,,,,,,,,,,,,,,,,,,,,,,,,,,,,,,,,,,,,,,,,,,,,,,802,001,2019_May_06_0922,MAER M R1 P1 v1,3.1.0,59.95894196748831,
,Pleasant,sounds/high 4 second.wav,num_2,images/1441.jpg,,,,,,0,16,16,23,,,,,,,,,,,,,,,,,,,,,,,,,,,,,,,,,,,,,,,,,,,,,,,,291.04352715895334,None,291.04352715895334,None,num_1,0,5.429303671822936,291.04352715895334,None,297.0062371380436,None,,,,,,,,,,,,,,,,,,,,,,,,,,,,,,,,,,,,,,,,,,,,,,,,,,,,,,,802,001,2019_May_06_0922,MAER M R1 P1 v1,3.1.0,59.95894196748831,
,Unpleasant,sounds/high 1 second.wav,num_2,images/9280.jpg,,,,,,0,17,17,31,,,,,,,,,,,,,,,,,,,,,,,,,,,,,,,,,,,,,,,,,,,,,,,,298.0438516656054,None,298.0438516656054,None,num_1,0,2.316181554260538,298.0438516656054,None,303.9964715910951,None,,,,,,,,,,,,,,,,,,,,,,,,,,,,,,,,,,,,,,,,,,,,,,,,,,,,,,,802,001,2019_May_06_0922,MAER M R1 P1 v1,3.1.0,59.95894196748831,
,Unpleasant,sounds/low 1 second.wav,num_1,images/6311.jpg,,,,,,0,18,18,30,,,,,,,,,,,,,,,,,,,,,,,,,,,,,,,,,,,,,,,,,,,,,,,,305.0188033576824,None,305.0188033576824,None,num_1,1,2.431950804791313,305.0188033576824,None,311.0032766157801,None,,,,,,,,,,,,,,,,,,,,,,,,,,,,,,,,,,,,,,,,,,,,,,,,,,,,,,,802,001,2019_May_06_0922,MAER M R1 P1 v1,3.1.0,59.95894196748831,
,Neutral,sounds/low 1 second.wav,num_1,images/2512.jpg,,,,,,0,19,19,4,,,,,,,,,,,,,,,,,,,,,,,,,,,,,,,,,,,,,,,,,,,,,,,,312.04218436244514,None,312.04218436244514,None,num_1,1,2.0150180476778132,312.04218436244514,None,318.01040013773513,None,,,,,,,,,,,,,,,,,,,,,,,,,,,,,,,,,,,,,,,,,,,,,,,,,,,,,,,802,001,2019_May_06_0922,MAER M R1 P1 v1,3.1.0,59.95894196748831,
,Pleasant,sounds/high 1 second.wav,num_2,images/2391.jpg,,,,,,0,20,20,25,,,,,,,,,,,,,,,,,,,,,,,,,,,,,,,,,,,,,,,,,,,,,,,,319.04416114880155,None,319.04416114880155,None,num_2,1,2.403568491485885,319.04416114880155,None,325.000859041221,None,,,,,,,,,,,,,,,,,,,,,,,,,,,,,,,,,,,,,,,,,,,,,,,,,,,,,,,802,001,2019_May_06_0922,MAER M R1 P1 v1,3.1.0,59.95894196748831,
,Pleasant,sounds/high 1 second.wav,num_2,images/1900.jpg,,,,,,0,21,21,29,,,,,,,,,,,,,,,,,,,,,,,,,,,,,,,,,,,,,,,,,,,,,,,,326.037997926162,None,326.037997926162,None,num_2,1,2.0330023265325963,326.037997926162,None,331.99101176667136,None,,,,,,,,,,,,,,,,,,,,,,,,,,,,,,,,,,,,,,,,,,,,,,,,,,,,,,,802,001,2019_May_06_0922,MAER M R1 P1 v1,3.1.0,59.95894196748831,
,Unpleasant,sounds/low 4 second.wav,num_1,images/2278.jpg,,,,,,0,22,22,32,,,,,,,,,,,,,,,,,,,,,,,,,,,,,,,,,,,,,,,,,,,,,,,,333.02877051941186,None,333.02877051941186,None,num_1,1,5.169431232984152,333.02877051941186,None,338.98155660432644,None,,,,,,,,,,,,,,,,,,,,,,,,,,,,,,,,,,,,,,,,,,,,,,,,,,,,,,,802,001,2019_May_06_0922,MAER M R1 P1 v1,3.1.0,59.95894196748831,
,Unpleasant,sounds/high 4 second.wav,num_2,images/2490.jpg,,,,,,0,23,23,33,,,,,,,,,,,,,,,,,,,,,,,,,,,,,,,,,,,,,,,,,,,,,,,,340.02388308866625,None,340.02388308866625,None,num_2,1,5.1142167265752505,340.02388308866625,None,345.98827479343504,None,,,,,,,,,,,,,,,,,,,,,,,,,,,,,,,,,,,,,,,,,,,,,,,,,,,,,,,802,001,2019_May_06_0922,MAER M R1 P1 v1,3.1.0,59.95894196748831,
,Neutral,sounds/low 1 second.wav,num_1,images/7170.jpg,,,,,,0,24,24,8,,,,,,,,,,,,,,,,,,,,,,,,,,,,,,,,,,,,,,,,,,,,,,,,347.0291043406071,None,347.0291043406071,None,num_1,1,2.1132411033345306,347.0291043406071,None,352.9788169268679,None,,,,,,,,,,,,,,,,,,,,,,,,,,,,,,,,,,,,,,,,,,,,,,,,,,,,,,,802,001,2019_May_06_0922,MAER M R1 P1 v1,3.1.0,59.95894196748831,
,Neutral,sounds/low 4 second.wav,num_1,images/5520.jpg,,,,,,0,25,25,2,,,,,,,,,,,,,,,,,,,,,,,,,,,,,,,,,,,,,,,,,,,,,,,,354.01517339021416,None,354.01517339021416,None,num_1,1,5.253852539970467,354.01517339021416,None,359.9856535008107,None,,,,,,,,,,,,,,,,,,,,,,,,,,,,,,,,,,,,,,,,,,,,,,,,,,,,,,,802,001,2019_May_06_0922,MAER M R1 P1 v1,3.1.0,59.95894196748831,
,Pleasant,sounds/low 1 second.wav,num_1,images/4150.jpg,,,,,,0,26,26,28,,,,,,,,,,,,,,,,,,,,,,,,,,,,,,,,,,,,,,,,,,,,,,,,361.00175053310727,None,361.00175053310727,None,num_1,1,2.3881210734318756,361.00175053310727,None,366.9760562165709,None,,,,,,,,,,,,,,,,,,,,,,,,,,,,,,,,,,,,,,,,,,,,,,,,,,,,,,,802,001,2019_May_06_0922,MAER M R1 P1 v1,3.1.0,59.95894196748831,
,Neutral,sounds/high 1 second.wav,num_2,images/7235.jpg,,,,,,0,27,27,9,,,,,,,,,,,,,,,,,,,,,,,,,,,,,,,,,,,,,,,,,,,,,,,,368.0133777867384,None,368.0133777867384,None,num_2,1,2.383438262158734,368.0133777867384,None,373.9661172989388,None,,,,,,,,,,,,,,,,,,,,,,,,,,,,,,,,,,,,,,,,,,,,,,,,,,,,,,,802,001,2019_May_06_0922,MAER M R1 P1 v1,3.1.0,59.95894196748831,
,Unpleasant,sounds/low 1 second.wav,num_1,images/9041.jpg,,,,,,0,28,28,38,,,,,,,,,,,,,,,,,,,,,,,,,,,,,,,,,,,,,,,,,,,,,,,,375.0024437153729,None,375.0024437153729,None,num_1,1,2.2839340061636904,375.0024437153729,None,380.97298061463357,None,,,,,,,,,,,,,,,,,,,,,,,,,,,,,,,,,,,,,,,,,,,,,,,,,,,,,,,802,001,2019_May_06_0922,MAER M R1 P1 v1,3.1.0,59.95894196748831,
,Neutral,sounds/high 4 second.wav,num_2,images/5530.jpg,,,,,,0,29,29,7,,,,,,,,,,,,,,,,,,,,,,,,,,,,,,,,,,,,,,,,,,,,,,,,382.0078143004673,None,382.0078143004673,None,num_2,1,5.339000982233529,382.0078143004673,None,387.96353957433735,None,,,,,,,,,,,,,,,,,,,,,,,,,,,,,,,,,,,,,,,,,,,,,,,,,,,,,,,802,001,2019_May_06_0922,MAER M R1 P1 v1,3.1.0,59.95894196748831,
,Unpleasant,sounds/low 4 second.wav,num_1,images/2750.jpg,,,,,,0,30,30,36,,,,,,,,,,,,,,,,,,,,,,,,,,,,,,,,,,,,,,,,,,,,,,,,388.99813288487326,None,388.99813288487326,None,num_1,1,5.2055734618459155,388.99813288487326,None,394.9703271718133,None,,,,,,,,,,,,,,,,,,,,,,,,,,,,,,,,,,,,,,,,,,,,,,,,,,,,,,,802,001,2019_May_06_0922,MAER M R1 P1 v1,3.1.0,59.95894196748831,
,Pleasant,sounds/high 1 second.wav,num_2,images/2360.jpg,,,,,,0,31,31,21,,,,,,,,,,,,,,,,,,,,,,,,,,,,,,,,,,,,,,,,,,,,,,,,396.00995934953244,None,396.00995934953244,None,num_2,1,2.1139180602674514,396.00995934953244,None,401.9776478015126,None,,,,,,,,,,,,,,,,,,,,,,,,,,,,,,,,,,,,,,,,,,,,,,,,,,,,,,,802,001,2019_May_06_0922,MAER M R1 P1 v1,3.1.0,59.95894196748831,
,Neutral,sounds/high 4 second.wav,num_2,images/7031.jpg,,,,,,0,32,32,3,,,,,,,,,,,,,,,,,,,,,,,,,,,,,,,,,,,,,,,,,,,,,,,,403.0136449037882,None,403.0136449037882,None,num_2,1,4.870503517141287,403.0136449037882,None,408.98445402807397,None,,,,,,,,,,,,,,,,,,,,,,,,,,,,,,,,,,,,,,,,,,,,,,,,,,,,,,,802,001,2019_May_06_0922,MAER M R1 P1 v1,3.1.0,59.95894196748831,
,Neutral,sounds/low 1 second.wav,num_1,images/7080.jpg,,,,,,0,33,33,16,,,,,,,,,,,,,,,,,,,,,,,,,,,,,,,,,,,,,,,,,,,,,,,,410.0237616991408,None,410.0237616991408,None,num_1,1,1.8985060374761815,410.0237616991408,None,415.9913822450992,None,,,,,,,,,,,,,,,,,,,,,,,,,,,,,,,,,,,,,,,,,,,,,,,,,,,,,,,802,001,2019_May_06_0922,MAER M R1 P1 v1,3.1.0,59.95894196748831,
,Neutral,sounds/high 1 second.wav,num_2,images/2570.jpg,,,,,,0,34,34,5,,,,,,,,,,,,,,,,,,,,,,,,,,,,,,,,,,,,,,,,,,,,,,,,417.01180453041343,None,417.01180453041343,None,num_2,1,1.9333352162732353,417.01180453041343,None,422.98183273544987,None,,,,,,,,,,,,,,,,,,,,,,,,,,,,,,,,,,,,,,,,,,,,,,,,,,,,,,,802,001,2019_May_06_0922,MAER M R1 P1 v1,3.1.0,59.95894196748831,
,Neutral,sounds/low 1 second.wav,num_1,images/2383.jpg,,,,,,0,35,35,0,,,,,,,,,,,,,,,,,,,,,,,,,,,,,,,,,,,,,,,,,,,,,,,,424.0019184953467,None,424.0019184953467,None,num_1,1,2.033568109889984,424.0019184953467,None,429.97212187388163,None,,,,,,,,,,,,,,,,,,,,,,,,,,,,,,,,,,,,,,,,,,,,,,,,,,,,,,,802,001,2019_May_06_0922,MAER M R1 P1 v1,3.1.0,59.95894196748831,
,Pleasant,sounds/low 4 second.wav,num_1,images/2362.jpg,,,,,,0,36,36,26,,,,,,,,,,,,,,,,,,,,,,,,,,,,,,,,,,,,,,,,,,,,,,,,431.01539423501913,None,431.01539423501913,None,num_1,1,4.913606113224432,431.01539423501913,None,436.962534805592,None,,,,,,,,,,,,,,,,,,,,,,,,,,,,,,,,,,,,,,,,,,,,,,,,,,,,,,,802,001,2019_May_06_0922,MAER M R1 P1 v1,3.1.0,59.95894196748831,
,Neutral,sounds/low 4 second.wav,num_1,images/7175.jpg,,,,,,0,37,37,10,,,,,,,,,,,,,,,,,,,,,,,,,,,,,,,,,,,,,,,,,,,,,,,,437.98167498916064,None,437.98167498916064,None,num_1,1,4.803903033806819,437.98167498916064,None,443.96914903238417,None,,,,,,,,,,,,,,,,,,,,,,,,,,,,,,,,,,,,,,,,,,,,,,,,,,,,,,,802,001,2019_May_06_0922,MAER M R1 P1 v1,3.1.0,59.95894196748831,
,Unpleasant,sounds/high 1 second.wav,num_2,images/9561.jpg,,,,,,0,38,38,39,,,,,,,,,,,,,,,,,,,,,,,,,,,,,,,,,,,,,,,,,,,,,,,,444.98761346089645,None,444.98761346089645,None,num_2,1,2.1352886261320236,444.98761346089645,None,450.95950667777606,None,,,,,,,,,,,,,,,,,,,,,,,,,,,,,,,,,,,,,,,,,,,,,,,,,,,,,,,802,001,2019_May_06_0922,MAER M R1 P1 v1,3.1.0,59.95894196748831,
,Neutral,sounds/low 4 second.wav,num_1,images/9700.jpg,,,,,,0,39,39,14,,,,,,,,,,,,,,,,,,,,,,,,,,,,,,,,,,,,,,,,,,,,,,,,451.98014169522867,None,451.98014169522867,None,num_1,1,5.036424369367978,451.98014169522867,None,457.9497874030724,None,,,,,,,,,,,,,,,,,,,,,,,,,,,,,,,,,,,,,,,,,,,,,,,,,,,,,,,802,001,2019_May_06_0922,MAER M R1 P1 v1,3.1.0,59.95894196748831,
,,,,,,,,,,,,,,,,,,,,,,,,,,,,,,,,,,,,,,,,,,,,,,,,,,,,,,,,,,,,,,,,,,,,,,,,458.9659394212183,None,space,3.0703752769197763,461.98744279443486,None,,,,,,,,,,,,,,,,,,,,,,,,,,,,,,,,,,,,,,,,,,,,,,,,,802,001,2019_May_06_0922,MAER M R1 P1 v1,3.1.0,59.95894196748831,
,,,,,,,,,,,,,,,,,,,,,,,,,,,,,,,,,,,,,,,,,,,,,,,,,,,,,,,,,,,,,,,,,,,,,,,,,,,,,,465.07377869066977,None,space,6.87420109016216,470.07875716355943,None,,,,,,,,,,,,,,,,,,,,,,,,,,,,,,,,,,,,,,,,,,,802,001,2019_May_06_0922,MAER M R1 P1 v1,3.1.0,59.95894196748831,
,,,,,,,,,,,,,,,,,,,,,,,,,,,,,,,,,,,,,,,,,,,,,,,,,,,,,,,,,,,,,,,,,,,,,,,,,,,,,,,,,,,,476.96907842214046,None,space,0.11752308879863449,479.97204074721867,None,,,,,,,,,,,,,,,,,,,,,,,,,,,,,,,,,,,,,802,001,2019_May_06_0922,MAER M R1 P1 v1,3.1.0,59.95894196748831,
,Unpleasant,,,,images/2205.jpg,,,,,,,,,0,0,0,8,,,,,,,,,,,,,,,,,,,,,,,,,480.1055536008371,None,,,,,,,,,,,,,,,,,,,,,,,,,,,,,,,,,,,,,,,,,,,,,,,485.1390622178408,491.11664872365213,491.13309069450133,None,num_7,4.505401082710478,491.13309069450133,None,491.13309069450133,None,-20,16.545,495.6692673270777,None,495.6692673270777,None,495.6692673270777,None,512.2204953594046,None,,,,,,,,,,,,,,,,,802,001,2019_May_06_0922,MAER M R1 P1 v1,3.1.0,59.95894196748831,
,Neutral,,,,images/7180.jpg,,,,,,,,,0,1,1,1,,,,,,,,,,,,,,,,,,,,,,,,,,,,,,,,,,,,,,,,,,,,,,,,,,,,,,,,,,,,,,,,,,,,,,,,,522.2500633238676,528.2200233224132,528.2200233224132,None,num_5,2.6694103503798488,528.2200233224132,None,528.2200233224132,None,0,1.264,530.9060673429426,None,530.9060673429426,None,530.9060673429426,None,532.1903516961031,None,,,,,,,,,,,,,,,,,802,001,2019_May_06_0922,MAER M R1 P1 v1,3.1.0,59.95894196748831,
,Neutral,,,,images/7513.jpg,,,,,,,,,0,2,2,0,,,,,,,,,,,,,,,,,,,,,,,,,,,,,,,,,,,,,,,,,,,,,,,,,,,,,,,,,,,,,,,,,,,,,,,,,542.2342877935321,548.1898943820988,548.1898943820988,None,num_5,1.8694885324457573,548.1898943820988,None,548.1898943820988,None,0,2.999,550.0757608854706,None,550.0757608854706,None,550.0757608854706,None,553.0947219894422,None,,,,,,,,,,,,,,,,,802,001,2019_May_06_0922,MAER M R1 P1 v1,3.1.0,59.95894196748831,
,Unpleasant,,,,images/2276.jpg,,,,,,,,,0,3,3,9,,,,,,,,,,,,,,,,,,,,,,,,,,,,,,,,,,,,,,,,,,,,,,,,,,,,,,,,,,,,,,,,,,,,,,,,,563.1195539595972,569.0777575027892,569.0942238116372,None,num_4,2.086328084037632,569.0942238116372,None,569.0942238116372,None,-5,5.39,571.2059337243238,None,571.2059337243238,None,571.2059337243238,None,576.6181419049562,None,,,,,,,,,,,,,,,,,802,001,2019_May_06_0922,MAER M R1 P1 v1,3.1.0,59.95894196748831,
,Pleasant,,,,images/8380.jpg,,,,,,,,,0,4,4,5,,,,,,,,,,,,,,,,,,,,,,,,,,,,,,,,,,,,,,,,,,,,,,,,,,,,,,,,,,,,,,,,,,,,,,,,,586.6528097318344,592.6012588454353,592.6177473889984,None,num_6,1.7190971263432857,592.6177473889984,None,592.6177473889984,None,5,3.339,594.3607011627253,None,594.3607011627253,None,594.3607011627253,None,597.7223635261735,None,,,,,,,,,,,,,,,,,802,001,2019_May_06_0922,MAER M R1 P1 v1,3.1.0,59.95894196748831,
,Unpleasant,,,,images/3500.jpg,,,,,,,,,0,5,5,11,,,,,,,,,,,,,,,,,,,,,,,,,,,,,,,,,,,,,,,,,,,,,,,,,,,,,,,,,,,,,,,,,,,,,,,,,607.7354832099356,613.7054365981608,613.7220810851984,None,num_4,2.803214959516481,613.7220810851984,None,613.7220810851984,None,-3,3.291,616.5497208792087,None,616.5497208792087,None,616.5497208792087,None,619.8613845797443,None,,,,,,,,,,,,,,,,,802,001,2019_May_06_0922,MAER M R1 P1 v1,3.1.0,59.95894196748831,
,Pleasant,,,,images/2389.jpg,,,,,,,,,0,6,6,7,,,,,,,,,,,,,,,,,,,,,,,,,,,,,,,,,,,,,,,,,,,,,,,,,,,,,,,,,,,,,,,,,,,,,,,,,629.8912725438227,635.8441457647825,635.8611225706695,None,num_6,2.552505326566461,635.8611225706695,None,635.8611225706695,None,6,3.222,638.4378484127267,None,638.4378484127267,None,638.4378484127267,None,641.6831087376722,None,,,,,,,,,,,,,,,,,802,001,2019_May_06_0922,MAER M R1 P1 v1,3.1.0,59.95894196748831,
,Pleasant,,,,images/1650.jpg,,,,,,,,,0,7,7,6,,,,,,,,,,,,,,,,,,,,,,,,,,,,,,,,,,,,,,,,,,,,,,,,,,,,,,,,,,,,,,,,,,,,,,,,,651.7151711967895,657.6660844576638,657.6826063532994,None,num_6,1.5024213304232035,657.6826063532994,None,657.6826063532994,None,3,3.413,659.2009483406443,None,659.2009483406443,None,659.2009483406443,None,662.6374043794576,None,,,,,,,,,,,,,,,,,802,001,2019_May_06_0922,MAER M R1 P1 v1,3.1.0,59.95894196748831,
,Neutral,,,,images/2393.jpg,,,,,,,,,0,8,8,2,,,,,,,,,,,,,,,,,,,,,,,,,,,,,,,,,,,,,,,,,,,,,,,,,,,,,,,,,,,,,,,,,,,,,,,,,672.6657467303701,678.6203536581666,678.6369699011066,None,num_5,1.2351321117660063,678.6369699011066,None,678.6369699011066,None,0,3.858,679.8959661719844,None,679.8959661719844,None,679.8959661719844,None,683.7750477821021,None,,,,,,,,,,,,,,,,,802,001,2019_May_06_0922,MAER M R1 P1 v1,3.1.0,59.95894196748831,
,Pleasant,,,,images/1721.jpg,,,,,,,,,0,9,9,4,,,,,,,,,,,,,,,,,,,,,,,,,,,,,,,,,,,,,,,,,,,,,,,,,,,,,,,,,,,,,,,,,,,,,,,,,693.8056430504948,699.7579760279725,699.7747557261152,None,num_7,2.8036016632770497,699.7747557261152,None,699.7747557261152,None,8,3.138,702.6024420928395,None,702.6024420928395,None,702.6024420928395,None,705.7638213542805,None,,,,,,,,,,,,,,,,,802,001,2019_May_06_0922,MAER M R1 P1 v1,3.1.0,59.95894196748831,
,Neutral,,,,images/2745.jpg,,,,,,,,,0,10,10,3,,,,,,,,,,,,,,,,,,,,,,,,,,,,,,,,,,,,,,,,,,,,,,,,,,,,,,,,,,,,,,,,,,,,,,,,,715.7955677198811,721.746713543856,721.7632126038384,None,num_5,1.2348601872104155,721.7632126038384,None,721.7632126038384,None,0,1.92,723.0238172859285,None,723.0238172859285,None,723.0238172859285,None,724.9661194022226,None,,,,,,,,,,,,,,,,,802,001,2019_May_06_0922,MAER M R1 P1 v1,3.1.0,59.95894196748831,
,Unpleasant,,,,images/3350.jpg,,,,,,,,,0,11,11,10,,,,,,,,,,,,,,,,,,,,,,,,,,,,,,,,,,,,,,,,,,,,,,,,,,,,,,,,,,,,,,,,,,,,,,,,,734.9953036676163,740.9490329251059,740.9658441725064,None,num_3,3.721051377515778,740.9658441725064,None,740.9658441725064,None,-19,7.508,744.7124582610829,None,744.7124582610829,None,744.7124582610829,None,752.243222543357,None,,,,,,,,,,,,,,,,,802,001,2019_May_06_0922,MAER M R1 P1 v1,3.1.0,59.95894196748831,
,,,,,,,,,,,,,,,,,,,,,,,,,,,,,,,,,,,,,,,,,,,,,,,,,,,,,,,,,,,,,,,,,,,,,,,,,,,,,,,,,,,,,,,,,,,,,,,,,,,,,,,,,,,,,,762.2718190911471,None,space,3.4539688816148555,765.2902540736852,None,,,,,,,,,,,802,001,2019_May_06_0922,MAER M R1 P1 v1,3.1.0,59.95894196748831,
,,,,,,,,,,,,,,,,,,,,,,,,,,,,,,,,,,,,,,,,,,,,,,,,,,,,,,,,,,,,,,,,,,,,,,,,,,,,,,,,,,,,,,,,,,,,,,,,,,,,,,,,,,,,,,,,,,,,769.0565095283266,None,769.0565095283266,1668.7579688167134,1669.2917948793452,None,space,12.596767733462002,1674.2970942532575,None,802,001,2019_May_06_0922,MAER M R1 P1 v1,3.1.0,59.95894196748831,
