PracticeImage,ImageCategory,SoundFile,CorrectAns,ReactivityImage1,PictureRatings_1,prac_reac_loop.thisRepN,prac_reac_loop.thisTrialN,prac_reac_loop.thisN,prac_reac_loop.thisIndex,reac_1_loop.thisRepN,reac_1_loop.thisTrialN,reac_1_loop.thisN,reac_1_loop.thisIndex,prt_1_loop.thisRepN,prt_1_loop.thisTrialN,prt_1_loop.thisN,prt_1_loop.thisIndex,slide1_headphones.started,slide1_headphones.stopped,slide1_headphones_resp.keys,slide1_headphones_resp.rt,slide1_headphones_resp.started,slide1_headphones_resp.stopped,reac_info_1.started,reac_info_1.stopped,reac_info_1_resp.keys,reac_info_1_resp.rt,reac_info_1_resp.started,reac_info_1_resp.stopped,reac_info_2.started,reac_info_2.stopped,reac_info_2_resp.keys,reac_info_2_resp.rt,reac_info_2_resp.started,reac_info_2_resp.stopped,reac_info_3.started,reac_info_3.stopped,reac_info_3_resp.keys,reac_info_3_resp.rt,reac_info_3_resp.started,reac_info_3_resp.stopped,blank_5seconds.started,blank_5seconds.stopped,practice_reac_image.started,practice_reac_image.stopped,practice_reac_sound.started,practice_reac_sound.stopped,practice_reac_keys.keys,practice_reac_keys.corr,practice_reac_keys.rt,practice_reac_keys.started,practice_reac_keys.stopped,blank_1second.started,blank_1second.stopped,post_prac_reac_text.started,post_prac_reac_text.stopped,post_prac_reac_resp.keys,post_prac_reac_resp.rt,post_prac_reac_resp.started,post_prac_reac_resp.stopped,reac_1_image.started,reac_1_image.stopped,reac_1_sound.started,reac_1_sound.stopped,reac_1_keys.keys,reac_1_keys.corr,reac_1_keys.rt,reac_1_keys.started,reac_1_keys.stopped,blank2_1second.started,blank2_1second.stopped,postreac1_slide1_text.started,postreac1_slide1_text.stopped,postreac1_slide1_resp.keys,postreac1_slide1_resp.rt,postreac1_slide1_resp.started,postreac1_slide1_resp.stopped,postreac1_slide2_text.started,postreac1_slide2_text.stopped,postreac1_slide2_resp.keys,postreac1_slide2_resp.rt,postreac1_slide2_resp.started,postreac1_slide2_resp.stopped,postreac1_slide3_text.started,postreac1_slide3_text.stopped,postreac1_slide3_resp.keys,postreac1_slide3_resp.rt,postreac1_slide3_resp.started,postreac1_slide3_resp.stopped,prt_1_image.started,prt_1_image.stopped,prt_1_image_intensity.started,prt_1_image_intensity.stopped,prt_1_image_intensity_resp.keys,prt_1_image_intensity_resp.rt,prt_1_image_intensity_resp.started,prt_1_image_intensity_resp.stopped,prt_1_image_intensity_text.started,prt_1_image_intensity_text.stopped,prt_1_vas.response,prt_1_vas.rt,prt_1_vas.started,prt_1_vas.stopped,prt_1_vas_guide.started,prt_1_vas_guide.stopped,prt_1_vas_instructions.started,prt_1_vas_instructions.stopped,blank_10seconds.started,blank_10seconds.stopped,pre_m_text.started,pre_m_text.stopped,pre_m_resp.keys,pre_m_resp.rt,pre_m_resp.started,pre_m_resp.stopped,m_audio_file.started,m_audio_file.stopped,m_inprogress_text.started,m_inprogress_text.stopped,pleasewait_text.started,pleasewait_text.stopped,pleasewait_resp.keys,pleasewait_resp.rt,pleasewait_resp.started,pleasewait_resp.stopped,participant,session,date,expName,psychopyVersion,frameRate,
,,,,,,,,,,,,,,,,,,11.057985432655869,None,space,14.25070362356746,11.057985432655869,None,,,,,,,,,,,,,,,,,,,,,,,,,,,,,,,,,,,,,,,,,,,,,,,,,,,,,,,,,,,,,,,,,,,,,,,,,,,,,,,,,,,,,,,,,,,,,,,,,,,,,,,845,001,2019_May_02_1542,MAER M R1 P1 v1,3.1.0,59.840138806461916,
,,,,,,,,,,,,,,,,,,,,,,,,25.32433388249069,None,space,29.16303424536727,28.327250235793144,None,,,,,,,,,,,,,,,,,,,,,,,,,,,,,,,,,,,,,,,,,,,,,,,,,,,,,,,,,,,,,,,,,,,,,,,,,,,,,,,,,,,,,,,,,,,,,,,,,845,001,2019_May_02_1542,MAER M R1 P1 v1,3.1.0,59.840138806461916,
,,,,,,,,,,,,,,,,,,,,,,,,,,,,,,57.50641817068981,None,space,23.20689853067597,60.509336026337905,None,,,,,,,,,,,,,,,,,,,,,,,,,,,,,,,,,,,,,,,,,,,,,,,,,,,,,,,,,,,,,,,,,,,,,,,,,,,,,,,,,,,,,,,,,,,845,001,2019_May_02_1542,MAER M R1 P1 v1,3.1.0,59.840138806461916,
,,,,,,,,,,,,,,,,,,,,,,,,,,,,,,,,,,,,83.73267442457905,None,space,8.259071989096583,88.73760632475478,None,,,,,,,,,,,,,,,,,,,,,,,,,,,,,,,,,,,,,,,,,,,,,,,,,,,,,,,,,,,,,,,,,,,,,,,,,,,,,,,,,,,,,845,001,2019_May_02_1542,MAER M R1 P1 v1,3.1.0,59.840138806461916,
images/7042.jpg,Neutral,sounds/low 4 second.wav,num_1,,,0,0,0,1,,,,,,,,,,,,,,,,,,,,,,,,,,,,,,,,,97.01266717726389,None,102.09134261322197,None,102.09134261322197,None,['num_1'],0,[5.065420841559899],102.09134261322197,None,108.02327313634783,None,,,,,,,,,,,,,,,,,,,,,,,,,,,,,,,,,,,,,,,,,,,,,,,,,,,,,,,,,,,,,,,,,,,,,,,,845,001,2019_May_02_1542,MAER M R1 P1 v1,3.1.0,59.840138806461916,
images/7053.jpg,Neutral,sounds/high 1 second.wav,num_2,,,0,1,1,2,,,,,,,,,,,,,,,,,,,,,,,,,,,,,,,,,,,109.06139335344278,None,109.06139335344278,None,['num_2'],0,[1.4991435127665227],109.06139335344278,None,115.0138251852618,None,,,,,,,,,,,,,,,,,,,,,,,,,,,,,,,,,,,,,,,,,,,,,,,,,,,,,,,,,,,,,,,,,,,,,,,,845,001,2019_May_02_1542,MAER M R1 P1 v1,3.1.0,59.840138806461916,
images/7059.jpg,Neutral,sounds/high 4 second.wav,num_2,,,0,2,2,3,,,,,,,,,,,,,,,,,,,,,,,,,,,,,,,,,,,116.04601023578107,None,116.04601023578107,None,['num_2'],0,[4.473766191154255],116.04601023578107,None,122.00401787310534,None,,,,,,,,,,,,,,,,,,,,,,,,,,,,,,,,,,,,,,,,,,,,,,,,,,,,,,,,,,,,,,,,,,,,,,,,845,001,2019_May_02_1542,MAER M R1 P1 v1,3.1.0,59.840138806461916,
images/7041.jpg,Neutral,sounds/low 1 second.wav,num_1,,,0,3,3,0,,,,,,,,,,,,,,,,,,,,,,,,,,,,,,,,,,,123.03695409643069,None,123.03695409643069,None,['num_1'],0,[1.5705689292692568],123.03695409643069,None,128.99443831654366,None,,,,,,,,,,,,,,,,,,,,,,,,,,,,,,,,,,,,,,,,,,,,,,,,,,,,,,,,,,,,,,,,,,,,,,,,845,001,2019_May_02_1542,MAER M R1 P1 v1,3.1.0,59.840138806461916,
,,,,,,,,,,,,,,,,,,,,,,,,,,,,,,,,,,,,,,,,,,,,,,,,,,,,,,,130.0086198581846,None,space,55.923142702701625,133.03176799937728,None,,,,,,,,,,,,,,,,,,,,,,,,,,,,,,,,,,,,,,,,,,,,,,,,,,,,,,,,,,,,,,,,,,845,001,2019_May_02_1542,MAER M R1 P1 v1,3.1.0,59.840138806461916,
,Neutral,sounds/low 4 second.wav,num_1,images/2499.jpg,,,,,,0,0,0,18,,,,,,,,,,,,,,,,,,,,,,,,,,,,,188.97076916189235,None,,,,,,,,,,,,,,,,,,194.00468942159387,None,194.00468942159387,None,num_1,1,4.459860480167663,194.00468942159387,None,199.9818225194997,None,,,,,,,,,,,,,,,,,,,,,,,,,,,,,,,,,,,,,,,,,,,,,,,,,,,,,,,845,001,2019_May_02_1542,MAER M R1 P1 v1,3.1.0,59.840138806461916,
,Pleasant,sounds/low 1 second.wav,num_1,images/8510.jpg,,,,,,0,1,1,24,,,,,,,,,,,,,,,,,,,,,,,,,,,,,,,,,,,,,,,,,,,,,,,,201.01589331423156,None,201.01589331423156,None,num_1,1,1.8364216050517825,201.01589331423156,None,206.97234722572352,None,,,,,,,,,,,,,,,,,,,,,,,,,,,,,,,,,,,,,,,,,,,,,,,,,,,,,,,845,001,2019_May_02_1542,MAER M R1 P1 v1,3.1.0,59.840138806461916,
,Unpleasant,sounds/low 4 second.wav,num_1,images/2278.jpg,,,,,,0,2,2,32,,,,,,,,,,,,,,,,,,,,,,,,,,,,,,,,,,,,,,,,,,,,,,,,208.0053113926774,None,208.0053113926774,None,num_1,1,4.556761471685832,208.0053113926774,None,213.96257536892335,None,,,,,,,,,,,,,,,,,,,,,,,,,,,,,,,,,,,,,,,,,,,,,,,,,,,,,,,845,001,2019_May_02_1542,MAER M R1 P1 v1,3.1.0,59.840138806461916,
,Unpleasant,sounds/high 4 second.wav,num_2,images/9008.jpg,,,,,,0,3,3,37,,,,,,,,,,,,,,,,,,,,,,,,,,,,,,,,,,,,,,,,,,,,,,,,215.00068567053745,None,215.00068567053745,None,num_2,1,4.4842784038721675,215.00068567053745,None,220.95288734300857,None,,,,,,,,,,,,,,,,,,,,,,,,,,,,,,,,,,,,,,,,,,,,,,,,,,,,,,,845,001,2019_May_02_1542,MAER M R1 P1 v1,3.1.0,59.840138806461916,
,Neutral,sounds/low 4 second.wav,num_1,images/5520.jpg,,,,,,0,4,4,2,,,,,,,,,,,,,,,,,,,,,,,,,,,,,,,,,,,,,,,,,,,,,,,,221.98557447743156,None,221.98557447743156,None,num_1,1,4.423482082575674,221.98557447743156,None,227.95975847090062,None,,,,,,,,,,,,,,,,,,,,,,,,,,,,,,,,,,,,,,,,,,,,,,,,,,,,,,,845,001,2019_May_02_1542,MAER M R1 P1 v1,3.1.0,59.840138806461916,
,Unpleasant,sounds/low 1 second.wav,num_1,images/9041.jpg,,,,,,0,5,5,38,,,,,,,,,,,,,,,,,,,,,,,,,,,,,,,,,,,,,,,,,,,,,,,,228.98991054733756,None,228.98991054733756,None,num_1,1,1.4732532903622086,228.98991054733756,None,234.96674347658995,None,,,,,,,,,,,,,,,,,,,,,,,,,,,,,,,,,,,,,,,,,,,,,,,,,,,,,,,845,001,2019_May_02_1542,MAER M R1 P1 v1,3.1.0,59.840138806461916,
,Unpleasant,sounds/high 1 second.wav,num_2,images/2700.jpg,,,,,,0,6,6,35,,,,,,,,,,,,,,,,,,,,,,,,,,,,,,,,,,,,,,,,,,,,,,,,236.00421648319525,None,236.00421648319525,None,num_2,1,1.5659480146350688,236.00421648319525,None,241.97383785303987,None,,,,,,,,,,,,,,,,,,,,,,,,,,,,,,,,,,,,,,,,,,,,,,,,,,,,,,,845,001,2019_May_02_1542,MAER M R1 P1 v1,3.1.0,59.840138806461916,
,Unpleasant,sounds/high 1 second.wav,num_2,images/9561.jpg,,,,,,0,7,7,39,,,,,,,,,,,,,,,,,,,,,,,,,,,,,,,,,,,,,,,,,,,,,,,,243.00664126901324,None,243.00664126901324,None,num_2,1,1.4534962436850947,243.00664126901324,None,248.98052118773035,None,,,,,,,,,,,,,,,,,,,,,,,,,,,,,,,,,,,,,,,,,,,,,,,,,,,,,,,845,001,2019_May_02_1542,MAER M R1 P1 v1,3.1.0,59.840138806461916,
,Unpleasant,sounds/high 4 second.wav,num_2,images/2490.jpg,,,,,,0,8,8,33,,,,,,,,,,,,,,,,,,,,,,,,,,,,,,,,,,,,,,,,,,,,,,,,250.01662705982835,None,250.01662705982835,None,num_2,1,4.419892377969745,250.01662705982835,None,255.97107684227376,None,,,,,,,,,,,,,,,,,,,,,,,,,,,,,,,,,,,,,,,,,,,,,,,,,,,,,,,845,001,2019_May_02_1542,MAER M R1 P1 v1,3.1.0,59.840138806461916,
,Pleasant,sounds/low 1 second.wav,num_1,images/1605.jpg,,,,,,0,9,9,20,,,,,,,,,,,,,,,,,,,,,,,,,,,,,,,,,,,,,,,,,,,,,,,,257.00607278143366,None,257.00607278143366,None,num_1,1,1.5349429063596745,257.00607278143366,None,262.96149337961356,None,,,,,,,,,,,,,,,,,,,,,,,,,,,,,,,,,,,,,,,,,,,,,,,,,,,,,,,845,001,2019_May_02_1542,MAER M R1 P1 v1,3.1.0,59.840138806461916,
,Unpleasant,sounds/low 1 second.wav,num_1,images/9471.jpg,,,,,,0,10,10,34,,,,,,,,,,,,,,,,,,,,,,,,,,,,,,,,,,,,,,,,,,,,,,,,263.99485266346346,None,263.99485266346346,None,num_1,1,1.4363475694601675,263.99485266346346,None,269.9684570519953,None,,,,,,,,,,,,,,,,,,,,,,,,,,,,,,,,,,,,,,,,,,,,,,,,,,,,,,,845,001,2019_May_02_1542,MAER M R1 P1 v1,3.1.0,59.840138806461916,
,Pleasant,sounds/low 1 second.wav,num_1,images/4150.jpg,,,,,,0,11,11,28,,,,,,,,,,,,,,,,,,,,,,,,,,,,,,,,,,,,,,,,,,,,,,,,270.98946014412286,None,270.98946014412286,None,num_1,1,1.4493813190536002,270.98946014412286,None,276.95878404953646,None,,,,,,,,,,,,,,,,,,,,,,,,,,,,,,,,,,,,,,,,,,,,,,,,,,,,,,,845,001,2019_May_02_1542,MAER M R1 P1 v1,3.1.0,59.840138806461916,
,Neutral,sounds/low 1 second.wav,num_1,images/7170.jpg,,,,,,0,12,12,8,,,,,,,,,,,,,,,,,,,,,,,,,,,,,,,,,,,,,,,,,,,,,,,,277.9909603864512,None,277.9909603864512,None,num_1,1,1.5714324775271962,277.9909603864512,None,283.9489526998502,None,,,,,,,,,,,,,,,,,,,,,,,,,,,,,,,,,,,,,,,,,,,,,,,,,,,,,,,845,001,2019_May_02_1542,MAER M R1 P1 v1,3.1.0,59.840138806461916,
,Neutral,sounds/low 1 second.wav,num_1,images/2383.jpg,,,,,,0,13,13,0,,,,,,,,,,,,,,,,,,,,,,,,,,,,,,,,,,,,,,,,,,,,,,,,284.9848350229213,None,284.9848350229213,None,num_1,1,1.4516411473232438,284.9848350229213,None,290.9392487490718,None,,,,,,,,,,,,,,,,,,,,,,,,,,,,,,,,,,,,,,,,,,,,,,,,,,,,,,,845,001,2019_May_02_1542,MAER M R1 P1 v1,3.1.0,59.840138806461916,
,Neutral,sounds/high 1 second.wav,num_2,images/7235.jpg,,,,,,0,14,14,9,,,,,,,,,,,,,,,,,,,,,,,,,,,,,,,,,,,,,,,,,,,,,,,,291.97239980782,None,291.97239980782,None,num_2,1,1.3699426915243293,291.97239980782,None,297.94635183912646,None,,,,,,,,,,,,,,,,,,,,,,,,,,,,,,,,,,,,,,,,,,,,,,,,,,,,,,,845,001,2019_May_02_1542,MAER M R1 P1 v1,3.1.0,59.840138806461916,
,Pleasant,sounds/low 4 second.wav,num_1,images/2306.jpg,,,,,,0,15,15,22,,,,,,,,,,,,,,,,,,,,,,,,,,,,,,,,,,,,,,,,,,,,,,,,298.9742494957377,None,298.9742494957377,None,num_1,1,4.862078963886233,298.9742494957377,None,304.93660792595483,None,,,,,,,,,,,,,,,,,,,,,,,,,,,,,,,,,,,,,,,,,,,,,,,,,,,,,,,845,001,2019_May_02_1542,MAER M R1 P1 v1,3.1.0,59.840138806461916,
,Neutral,sounds/low 4 second.wav,num_1,images/9700.jpg,,,,,,0,16,16,14,,,,,,,,,,,,,,,,,,,,,,,,,,,,,,,,,,,,,,,,,,,,,,,,305.9783175471864,None,305.9783175471864,None,num_1,1,4.464849469476576,305.9783175471864,None,311.9437903398575,None,,,,,,,,,,,,,,,,,,,,,,,,,,,,,,,,,,,,,,,,,,,,,,,,,,,,,,,845,001,2019_May_02_1542,MAER M R1 P1 v1,3.1.0,59.840138806461916,
,Pleasant,sounds/low 4 second.wav,num_1,images/2362.jpg,,,,,,0,17,17,26,,,,,,,,,,,,,,,,,,,,,,,,,,,,,,,,,,,,,,,,,,,,,,,,312.98613635469064,None,312.98613635469064,None,num_1,1,4.397098489872178,312.98613635469064,None,318.9339088118279,None,,,,,,,,,,,,,,,,,,,,,,,,,,,,,,,,,,,,,,,,,,,,,,,,,,,,,,,845,001,2019_May_02_1542,MAER M R1 P1 v1,3.1.0,59.840138806461916,
,Neutral,sounds/low 1 second.wav,num_1,images/7080.jpg,,,,,,0,18,18,16,,,,,,,,,,,,,,,,,,,,,,,,,,,,,,,,,,,,,,,,,,,,,,,,319.96847688295725,None,319.96847688295725,None,num_1,1,1.4519338042484833,319.96847688295725,None,325.924284485367,None,,,,,,,,,,,,,,,,,,,,,,,,,,,,,,,,,,,,,,,,,,,,,,,,,,,,,,,845,001,2019_May_02_1542,MAER M R1 P1 v1,3.1.0,59.840138806461916,
,Neutral,sounds/high 1 second.wav,num_2,images/2570.jpg,,,,,,0,19,19,5,,,,,,,,,,,,,,,,,,,,,,,,,,,,,,,,,,,,,,,,,,,,,,,,326.9545345147378,None,326.9545345147378,None,num_2,1,1.5065452691285373,326.9545345147378,None,332.91456220597206,None,,,,,,,,,,,,,,,,,,,,,,,,,,,,,,,,,,,,,,,,,,,,,,,,,,,,,,,845,001,2019_May_02_1542,MAER M R1 P1 v1,3.1.0,59.840138806461916,
,Neutral,sounds/high 4 second.wav,num_2,images/7045.jpg,,,,,,0,20,20,15,,,,,,,,,,,,,,,,,,,,,,,,,,,,,,,,,,,,,,,,,,,,,,,,333.95723302792635,None,333.95723302792635,None,num_2,1,4.346711921322822,333.95723302792635,None,339.904598649872,None,,,,,,,,,,,,,,,,,,,,,,,,,,,,,,,,,,,,,,,,,,,,,,,,,,,,,,,845,001,2019_May_02_1542,MAER M R1 P1 v1,3.1.0,59.840138806461916,
,Neutral,sounds/low 4 second.wav,num_1,images/7175.jpg,,,,,,0,21,21,10,,,,,,,,,,,,,,,,,,,,,,,,,,,,,,,,,,,,,,,,,,,,,,,,340.93092635531843,None,340.93092635531843,None,num_1,1,4.347523187953357,340.93092635531843,None,346.8950293092605,None,,,,,,,,,,,,,,,,,,,,,,,,,,,,,,,,,,,,,,,,,,,,,,,,,,,,,,,845,001,2019_May_02_1542,MAER M R1 P1 v1,3.1.0,59.840138806461916,
,Neutral,sounds/high 4 second.wav,num_2,images/7025.jpg,,,,,,0,22,22,19,,,,,,,,,,,,,,,,,,,,,,,,,,,,,,,,,,,,,,,,,,,,,,,,347.92609270854587,None,347.92609270854587,None,num_2,1,4.525282523604119,347.92609270854587,None,353.8856258276046,None,,,,,,,,,,,,,,,,,,,,,,,,,,,,,,,,,,,,,,,,,,,,,,,,,,,,,,,845,001,2019_May_02_1542,MAER M R1 P1 v1,3.1.0,59.840138806461916,
,Unpleasant,sounds/low 1 second.wav,num_1,images/6311.jpg,,,,,,0,23,23,30,,,,,,,,,,,,,,,,,,,,,,,,,,,,,,,,,,,,,,,,,,,,,,,,354.9170200433937,None,354.9170200433937,None,num_1,1,1.571263613880319,354.9170200433937,None,360.89271269232654,None,,,,,,,,,,,,,,,,,,,,,,,,,,,,,,,,,,,,,,,,,,,,,,,,,,,,,,,845,001,2019_May_02_1542,MAER M R1 P1 v1,3.1.0,59.840138806461916,
,Unpleasant,sounds/low 4 second.wav,num_1,images/2750.jpg,,,,,,0,24,24,36,,,,,,,,,,,,,,,,,,,,,,,,,,,,,,,,,,,,,,,,,,,,,,,,361.9244722785684,None,361.9244722785684,None,num_1,1,4.4073745338598656,361.9244722785684,None,367.8828320657042,None,,,,,,,,,,,,,,,,,,,,,,,,,,,,,,,,,,,,,,,,,,,,,,,,,,,,,,,845,001,2019_May_02_1542,MAER M R1 P1 v1,3.1.0,59.840138806461916,
,Pleasant,sounds/high 1 second.wav,num_2,images/2391.jpg,,,,,,0,25,25,25,,,,,,,,,,,,,,,,,,,,,,,,,,,,,,,,,,,,,,,,,,,,,,,,368.915791124683,None,368.915791124683,None,num_2,1,1.5369031669144988,368.915791124683,None,374.88967855512806,None,,,,,,,,,,,,,,,,,,,,,,,,,,,,,,,,,,,,,,,,,,,,,,,,,,,,,,,845,001,2019_May_02_1542,MAER M R1 P1 v1,3.1.0,59.840138806461916,
,Neutral,sounds/high 4 second.wav,num_2,images/2190.jpg,,,,,,0,26,26,11,,,,,,,,,,,,,,,,,,,,,,,,,,,,,,,,,,,,,,,,,,,,,,,,375.92316794210797,None,375.92316794210797,None,num_2,1,4.556350429926397,375.92316794210797,None,381.89674318513494,None,,,,,,,,,,,,,,,,,,,,,,,,,,,,,,,,,,,,,,,,,,,,,,,,,,,,,,,845,001,2019_May_02_1542,MAER M R1 P1 v1,3.1.0,59.840138806461916,
,Neutral,sounds/high 4 second.wav,num_2,images/7031.jpg,,,,,,0,27,27,3,,,,,,,,,,,,,,,,,,,,,,,,,,,,,,,,,,,,,,,,,,,,,,,,382.9264112058156,None,382.9264112058156,None,num_2,1,4.426668257149913,382.9264112058156,None,388.8871392905744,None,,,,,,,,,,,,,,,,,,,,,,,,,,,,,,,,,,,,,,,,,,,,,,,,,,,,,,,845,001,2019_May_02_1542,MAER M R1 P1 v1,3.1.0,59.840138806461916,
,Neutral,sounds/high 1 second.wav,num_2,images/5533.jpg,,,,,,0,28,28,1,,,,,,,,,,,,,,,,,,,,,,,,,,,,,,,,,,,,,,,,,,,,,,,,389.91440385874466,None,389.91440385874466,None,num_2,1,1.475847240296389,389.91440385874466,None,395.894269723319,None,,,,,,,,,,,,,,,,,,,,,,,,,,,,,,,,,,,,,,,,,,,,,,,,,,,,,,,845,001,2019_May_02_1542,MAER M R1 P1 v1,3.1.0,59.840138806461916,
,Pleasant,sounds/high 1 second.wav,num_2,images/2360.jpg,,,,,,0,29,29,21,,,,,,,,,,,,,,,,,,,,,,,,,,,,,,,,,,,,,,,,,,,,,,,,396.9270199562577,None,396.9270199562577,None,num_2,1,1.4369025359294483,396.9270199562577,None,402.8845702795775,None,,,,,,,,,,,,,,,,,,,,,,,,,,,,,,,,,,,,,,,,,,,,,,,,,,,,,,,845,001,2019_May_02_1542,MAER M R1 P1 v1,3.1.0,59.840138806461916,
,Pleasant,sounds/high 1 second.wav,num_2,images/1900.jpg,,,,,,0,30,30,29,,,,,,,,,,,,,,,,,,,,,,,,,,,,,,,,,,,,,,,,,,,,,,,,403.91761977976216,None,403.91761977976216,None,num_2,1,1.4033188016451277,403.91761977976216,None,409.8748368828251,None,,,,,,,,,,,,,,,,,,,,,,,,,,,,,,,,,,,,,,,,,,,,,,,,,,,,,,,845,001,2019_May_02_1542,MAER M R1 P1 v1,3.1.0,59.840138806461916,
,Neutral,sounds/low 1 second.wav,num_1,images/2512.jpg,,,,,,0,31,31,4,,,,,,,,,,,,,,,,,,,,,,,,,,,,,,,,,,,,,,,,,,,,,,,,410.90650122035527,None,410.90650122035527,None,num_1,1,1.3880561721014146,410.90650122035527,None,416.86504369271734,None,,,,,,,,,,,,,,,,,,,,,,,,,,,,,,,,,,,,,,,,,,,,,,,,,,,,,,,845,001,2019_May_02_1542,MAER M R1 P1 v1,3.1.0,59.840138806461916,
,Neutral,sounds/high 1 second.wav,num_2,images/2210.jpg,,,,,,0,32,32,17,,,,,,,,,,,,,,,,,,,,,,,,,,,,,,,,,,,,,,,,,,,,,,,,417.89462157266144,None,417.89462157266144,None,num_2,1,1.3740726396122227,417.89462157266144,None,423.8718742572778,None,,,,,,,,,,,,,,,,,,,,,,,,,,,,,,,,,,,,,,,,,,,,,,,,,,,,,,,845,001,2019_May_02_1542,MAER M R1 P1 v1,3.1.0,59.840138806461916,
,Pleasant,sounds/high 4 second.wav,num_2,images/1441.jpg,,,,,,0,33,33,23,,,,,,,,,,,,,,,,,,,,,,,,,,,,,,,,,,,,,,,,,,,,,,,,424.90990884067287,None,424.90990884067287,None,num_2,1,4.4350047729521975,424.90990884067287,None,430.8622856866425,None,,,,,,,,,,,,,,,,,,,,,,,,,,,,,,,,,,,,,,,,,,,,,,,,,,,,,,,845,001,2019_May_02_1542,MAER M R1 P1 v1,3.1.0,59.840138806461916,
,Neutral,sounds/low 1 second.wav,num_1,images/7056.jpg,,,,,,0,34,34,12,,,,,,,,,,,,,,,,,,,,,,,,,,,,,,,,,,,,,,,,,,,,,,,,431.8998305053681,None,431.8998305053681,None,num_1,1,1.599243298561987,431.8998305053681,None,437.85268690005705,None,,,,,,,,,,,,,,,,,,,,,,,,,,,,,,,,,,,,,,,,,,,,,,,,,,,,,,,845,001,2019_May_02_1542,MAER M R1 P1 v1,3.1.0,59.840138806461916,
,Neutral,sounds/low 4 second.wav,num_1,images/7038.jpg,,,,,,0,35,35,6,,,,,,,,,,,,,,,,,,,,,,,,,,,,,,,,,,,,,,,,,,,,,,,,438.8911715861975,None,438.8911715861975,None,num_1,1,4.600985118064727,438.8911715861975,None,444.8594841125448,None,,,,,,,,,,,,,,,,,,,,,,,,,,,,,,,,,,,,,,,,,,,,,,,,,,,,,,,845,001,2019_May_02_1542,MAER M R1 P1 v1,3.1.0,59.840138806461916,
,Pleasant,sounds/high 4 second.wav,num_2,images/2311.jpg,,,,,,0,36,36,27,,,,,,,,,,,,,,,,,,,,,,,,,,,,,,,,,,,,,,,,,,,,,,,,445.8970286308013,None,445.8970286308013,None,num_2,1,4.401087517941733,445.8970286308013,None,451.84978557021077,None,,,,,,,,,,,,,,,,,,,,,,,,,,,,,,,,,,,,,,,,,,,,,,,,,,,,,,,845,001,2019_May_02_1542,MAER M R1 P1 v1,3.1.0,59.840138806461916,
,Neutral,sounds/high 1 second.wav,num_2,images/5510.jpg,,,,,,0,37,37,13,,,,,,,,,,,,,,,,,,,,,,,,,,,,,,,,,,,,,,,,,,,,,,,,452.8838170034876,None,452.8838170034876,None,num_2,1,1.4858799042945066,452.8838170034876,None,458.8566326605728,None,,,,,,,,,,,,,,,,,,,,,,,,,,,,,,,,,,,,,,,,,,,,,,,,,,,,,,,845,001,2019_May_02_1542,MAER M R1 P1 v1,3.1.0,59.840138806461916,
,Unpleasant,sounds/high 1 second.wav,num_2,images/9280.jpg,,,,,,0,38,38,31,,,,,,,,,,,,,,,,,,,,,,,,,,,,,,,,,,,,,,,,,,,,,,,,459.8884249979492,None,459.8884249979492,None,num_2,1,1.438394966060514,459.8884249979492,None,465.8471805029192,None,,,,,,,,,,,,,,,,,,,,,,,,,,,,,,,,,,,,,,,,,,,,,,,,,,,,,,,845,001,2019_May_02_1542,MAER M R1 P1 v1,3.1.0,59.840138806461916,
,Neutral,sounds/high 4 second.wav,num_2,images/5530.jpg,,,,,,0,39,39,7,,,,,,,,,,,,,,,,,,,,,,,,,,,,,,,,,,,,,,,,,,,,,,,,466.88074680999443,None,466.88074680999443,None,num_2,1,4.422526290296901,466.88074680999443,None,472.8541967573972,None,,,,,,,,,,,,,,,,,,,,,,,,,,,,,,,,,,,,,,,,,,,,,,,,,,,,,,,845,001,2019_May_02_1542,MAER M R1 P1 v1,3.1.0,59.840138806461916,
,,,,,,,,,,,,,,,,,,,,,,,,,,,,,,,,,,,,,,,,,,,,,,,,,,,,,,,,,,,,,,,,,,,,,,,,473.8796410836237,None,space,1.4187785389328837,476.89152854351505,None,,,,,,,,,,,,,,,,,,,,,,,,,,,,,,,,,,,,,,,,,,,,,,,,,845,001,2019_May_02_1542,MAER M R1 P1 v1,3.1.0,59.840138806461916,
,,,,,,,,,,,,,,,,,,,,,,,,,,,,,,,,,,,,,,,,,,,,,,,,,,,,,,,,,,,,,,,,,,,,,,,,,,,,,,478.326388790819,None,space,3.32053685419055,483.3314312636319,None,,,,,,,,,,,,,,,,,,,,,,,,,,,,,,,,,,,,,,,,,,,845,001,2019_May_02_1542,MAER M R1 P1 v1,3.1.0,59.840138806461916,
,,,,,,,,,,,,,,,,,,,,,,,,,,,,,,,,,,,,,,,,,,,,,,,,,,,,,,,,,,,,,,,,,,,,,,,,,,,,,,,,,,,,486.668055535107,None,space,4.205258570205615,489.670880245327,None,,,,,,,,,,,,,,,,,,,,,,,,,,,,,,,,,,,,,845,001,2019_May_02_1542,MAER M R1 P1 v1,3.1.0,59.840138806461916,
,Unpleasant,,,,images/2276.jpg,,,,,,,,,0,0,0,9,,,,,,,,,,,,,,,,,,,,,,,,,493.89195941623643,None,,,,,,,,,,,,,,,,,,,,,,,,,,,,,,,,,,,,,,,,,,,,,,,498.93617885604795,504.91952204977633,504.91952204977633,None,num_6,7.608284414456193,504.91952204977633,None,504.91952204977633,None,0,10.955,512.5589834408461,None,512.5589834408461,None,512.5589834408461,None,523.5213172325953,None,,,,,,,,,,,,,,,,,845,001,2019_May_02_1542,MAER M R1 P1 v1,3.1.0,59.840138806461916,
,Pleasant,,,,images/2389.jpg,,,,,,,,,0,1,1,7,,,,,,,,,,,,,,,,,,,,,,,,,,,,,,,,,,,,,,,,,,,,,,,,,,,,,,,,,,,,,,,,,,,,,,,,,533.5435937128639,539.520693458697,539.520693458697,None,num_3,6.256837400233053,539.520693458697,None,539.520693458697,None,0,4.059,545.7993184759364,None,545.7993184759364,None,545.7993184759364,None,549.8807639367344,None,,,,,,,,,,,,,,,,,845,001,2019_May_02_1542,MAER M R1 P1 v1,3.1.0,59.840138806461916,
,Pleasant,,,,images/8380.jpg,,,,,,,,,0,2,2,5,,,,,,,,,,,,,,,,,,,,,,,,,,,,,,,,,,,,,,,,,,,,,,,,,,,,,,,,,,,,,,,,,,,,,,,,,559.9073749845634,565.8635308306859,565.8802660593985,None,num_5,3.3376206270852435,565.8802660593985,None,565.8802660593985,None,10,4.877,569.2392872992602,None,569.2392872992602,None,569.2392872992602,None,574.1382275146186,None,,,,,,,,,,,,,,,,,845,001,2019_May_02_1542,MAER M R1 P1 v1,3.1.0,59.840138806461916,
,Unpleasant,,,,images/2205.jpg,,,,,,,,,0,3,3,8,,,,,,,,,,,,,,,,,,,,,,,,,,,,,,,,,,,,,,,,,,,,,,,,,,,,,,,,,,,,,,,,,,,,,,,,,584.1626180956325,590.1210430845679,590.1379826322839,None,num_2,3.654254988313369,590.1379826322839,None,590.1379826322839,None,3,5.293,593.8142614063338,None,593.8142614063338,None,593.8142614063338,None,599.1299210457285,None,,,,,,,,,,,,,,,,,845,001,2019_May_02_1542,MAER M R1 P1 v1,3.1.0,59.840138806461916,
,Unpleasant,,,,images/3350.jpg,,,,,,,,,0,4,4,10,,,,,,,,,,,,,,,,,,,,,,,,,,,,,,,,,,,,,,,,,,,,,,,,,,,,,,,,,,,,,,,,,,,,,,,,,609.1552779354404,615.1128075263907,615.1293979289865,None,num_7,3.404254162023335,615.1293979289865,None,615.1293979289865,None,-20,5.909,618.5559889655717,None,618.5559889655717,None,618.5559889655717,None,624.4882313756468,None,,,,,,,,,,,,,,,,,845,001,2019_May_02_1542,MAER M R1 P1 v1,3.1.0,59.840138806461916,
,Neutral,,,,images/2393.jpg,,,,,,,,,0,5,5,2,,,,,,,,,,,,,,,,,,,,,,,,,,,,,,,,,,,,,,,,,,,,,,,,,,,,,,,,,,,,,,,,,,,,,,,,,634.516867284892,640.4877557330258,640.4877557330258,None,num_1,1.2019696351912899,640.4877557330258,None,640.4877557330258,None,0,3.058,641.7109994834934,None,641.7109994834934,None,641.7109994834934,None,644.7920035551508,None,,,,,,,,,,,,,,,,,845,001,2019_May_02_1542,MAER M R1 P1 v1,3.1.0,59.840138806461916,
,Neutral,,,,images/7180.jpg,,,,,,,,,0,6,6,1,,,,,,,,,,,,,,,,,,,,,,,,,,,,,,,,,,,,,,,,,,,,,,,,,,,,,,,,,,,,,,,,,,,,,,,,,654.8140030028883,660.7911952932111,660.7911952932111,None,num_1,1.8696781284616009,660.7911952932111,None,660.7911952932111,None,0,2.506,662.6827097146777,None,662.6827097146777,None,662.6827097146777,None,665.2124361766025,None,,,,,,,,,,,,,,,,,845,001,2019_May_02_1542,MAER M R1 P1 v1,3.1.0,59.840138806461916,
,Pleasant,,,,images/1650.jpg,,,,,,,,,0,7,7,6,,,,,,,,,,,,,,,,,,,,,,,,,,,,,,,,,,,,,,,,,,,,,,,,,,,,,,,,,,,,,,,,,,,,,,,,,675.2402454952919,681.1954275209885,681.2121227873079,None,num_3,2.6532892805535084,681.2121227873079,None,681.2121227873079,None,0,2.546,683.881226358714,None,683.881226358714,None,683.881226358714,None,686.4503830831075,None,,,,,,,,,,,,,,,,,845,001,2019_May_02_1542,MAER M R1 P1 v1,3.1.0,59.840138806461916,
,Neutral,,,,images/7513.jpg,,,,,,,,,0,8,8,0,,,,,,,,,,,,,,,,,,,,,,,,,,,,,,,,,,,,,,,,,,,,,,,,,,,,,,,,,,,,,,,,,,,,,,,,,696.4867759032174,702.4332788783129,702.449870482785,None,num_1,1.5356976847951955,702.449870482785,None,702.449870482785,None,0,3.28,704.0013959795426,None,704.0013959795426,None,704.0013959795426,None,707.3042937939006,None,,,,,,,,,,,,,,,,,845,001,2019_May_02_1542,MAER M R1 P1 v1,3.1.0,59.840138806461916,
,Pleasant,,,,images/1721.jpg,,,,,,,,,0,9,9,4,,,,,,,,,,,,,,,,,,,,,,,,,,,,,,,,,,,,,,,,,,,,,,,,,,,,,,,,,,,,,,,,,,,,,,,,,717.3296888431908,723.2873269034942,723.304008348234,None,num_2,3.5876235566593095,723.304008348234,None,723.304008348234,None,20,6.077,726.9137569487241,None,726.9137569487241,None,726.9137569487241,None,733.0135604719646,None,,,,,,,,,,,,,,,,,845,001,2019_May_02_1542,MAER M R1 P1 v1,3.1.0,59.840138806461916,
,Unpleasant,,,,images/3500.jpg,,,,,,,,,0,10,10,11,,,,,,,,,,,,,,,,,,,,,,,,,,,,,,,,,,,,,,,,,,,,,,,,,,,,,,,,,,,,,,,,,,,,,,,,,743.0396042340906,749.0130941438867,749.0130941438867,None,num_7,1.4021559861407695,749.0130941438867,None,749.0130941438867,None,-10,3.582,750.4313838195574,None,750.4313838195574,None,750.4313838195574,None,754.0344169351608,None,,,,,,,,,,,,,,,,,845,001,2019_May_02_1542,MAER M R1 P1 v1,3.1.0,59.840138806461916,
,Neutral,,,,images/2745.jpg,,,,,,,,,0,11,11,3,,,,,,,,,,,,,,,,,,,,,,,,,,,,,,,,,,,,,,,,,,,,,,,,,,,,,,,,,,,,,,,,,,,,,,,,,764.0629639055458,770.0340572736211,770.0340572736211,None,num_1,1.418771027204457,770.0340572736211,None,770.0340572736211,None,0,2.392,771.4737598813028,None,771.4737598813028,None,771.4737598813028,None,773.8876503885515,None,,,,,,,,,,,,,,,,,845,001,2019_May_02_1542,MAER M R1 P1 v1,3.1.0,59.840138806461916,
,,,,,,,,,,,,,,,,,,,,,,,,,,,,,,,,,,,,,,,,,,,,,,,,,,,,,,,,,,,,,,,,,,,,,,,,,,,,,,,,,,,,,,,,,,,,,,,,,,,,,,,,,,,,,,783.9153821862071,None,space,1.851927013646673,786.9344971303697,None,,,,,,,,,,,845,001,2019_May_02_1542,MAER M R1 P1 v1,3.1.0,59.840138806461916,
,,,,,,,,,,,,,,,,,,,,,,,,,,,,,,,,,,,,,,,,,,,,,,,,,,,,,,,,,,,,,,,,,,,,,,,,,,,,,,,,,,,,,,,,,,,,,,,,,,,,,,,,,,,,,,,,,,,,789.0823516756711,None,789.0823516756711,1688.8008175163884,1689.3012662670228,None,space,10.010765207718578,1694.3063162515634,None,845,001,2019_May_02_1542,MAER M R1 P1 v1,3.1.0,59.840138806461916,
