ReactivityImage2,ImageCategory,SoundFile,CorrectAns,reac_2_loop.thisRepN,reac_2_loop.thisTrialN,reac_2_loop.thisN,reac_2_loop.thisIndex,slide1_headphones.started,slide1_headphones.stopped,slide1_headphones_resp.keys,slide1_headphones_resp.rt,slide1_headphones_resp.started,slide1_headphones_resp.stopped,reac_info_1.started,reac_info_1.stopped,reac_info_1_resp.keys,reac_info_1_resp.rt,reac_info_1_resp.started,reac_info_1_resp.stopped,reac_info_2.started,reac_info_2.stopped,reac_info_2_resp.keys,reac_info_2_resp.rt,reac_info_2_resp.started,reac_info_2_resp.stopped,reac_info_3.started,reac_info_3.stopped,reac_info_3_resp.keys,reac_info_3_resp.rt,reac_info_3_resp.started,reac_info_3_resp.stopped,blank_5seconds.started,blank_5seconds.stopped,reac_2_image.started,reac_2_image.stopped,reac_2_sound.started,reac_2_sound.stopped,reac_2_keys.keys,reac_2_keys.corr,reac_2_keys.rt,reac_2_keys.started,reac_2_keys.stopped,blank_1second.started,blank_1second.stopped,participant,session,date,expName,psychopyVersion,frameRate,
,,,,,,,,12.044415986654258,None,space,18.100967631634376,12.044415986654258,None,,,,,,,,,,,,,,,,,,,,,,,,,,,,,,,,703,002,2019_May_02_1009,MAER M R1 P2 v1,3.1.0,59.96688252483221,
,,,,,,,,,,,,,,30.161175388191168,None,space,8.809449221574141,33.163945115058596,None,,,,,,,,,,,,,,,,,,,,,,,,,,703,002,2019_May_02_1009,MAER M R1 P2 v1,3.1.0,59.96688252483221,
,,,,,,,,,,,,,,,,,,,,41.989809580526526,None,space,2.286088627653953,44.992532734637734,None,,,,,,,,,,,,,,,,,,,,703,002,2019_May_02_1009,MAER M R1 P2 v1,3.1.0,59.96688252483221,
,,,,,,,,,,,,,,,,,,,,,,,,,,47.29494285973533,None,space,3.7040658917358087,52.29995468921561,None,,,,,,,,,,,,,,703,002,2019_May_02_1009,MAER M R1 P2 v1,3.1.0,59.96688252483221,
images/9265.jpg,Unpleasant,sounds/low 4 second.wav,num_1,0,0,0,32,,,,,,,,,,,,,,,,,,,,,,,,,56.020189740412206,None,61.07734683121953,None,61.07734683121953,None,num_1,1,5.3703844145320545,61.07734683121953,None,67.03112261975639,None,703,002,2019_May_02_1009,MAER M R1 P2 v1,3.1.0,59.96688252483221,
images/5594.jpg,Pleasant,sounds/high 1 second.wav,num_2,0,1,1,29,,,,,,,,,,,,,,,,,,,,,,,,,,,68.06863021412028,None,68.06863021412028,None,num_2,1,2.0494392339714977,68.06863021412028,None,74.0217548854821,None,703,002,2019_May_02_1009,MAER M R1 P2 v1,3.1.0,59.96688252483221,
images/7036.jpg,Neutral,sounds/high 4 second.wav,num_2,0,2,2,19,,,,,,,,,,,,,,,,,,,,,,,,,,,75.05990458293945,None,75.05990458293945,None,num_2,1,5.15176528773236,75.05990458293945,None,81.01188206215738,None,703,002,2019_May_02_1009,MAER M R1 P2 v1,3.1.0,59.96688252483221,
images/7161.jpg,Neutral,sounds/low 4 second.wav,num_1,0,3,3,18,,,,,,,,,,,,,,,,,,,,,,,,,,,82.04941880205251,None,82.04941880205251,None,num_1,1,4.48477882147472,82.04941880205251,None,88.01879075491706,None,703,002,2019_May_02_1009,MAER M R1 P2 v1,3.1.0,59.96688252483221,
images/7950.jpg,Neutral,sounds/low 4 second.wav,num_1,0,4,4,6,,,,,,,,,,,,,,,,,,,,,,,,,,,89.03972145285343,None,89.03972145285343,None,num_1,1,4.6188855229643195,89.03972145285343,None,95.00909851369806,None,703,002,2019_May_02_1009,MAER M R1 P2 v1,3.1.0,59.96688252483221,
images/2840.jpg,Neutral,sounds/low 1 second.wav,num_1,0,5,5,4,,,,,,,,,,,,,,,,,,,,,,,,,,,96.03843243915617,None,96.03843243915617,None,num_1,1,2.374604507161166,96.03843243915617,None,101.99945765274515,None,703,002,2019_May_02_1009,MAER M R1 P2 v1,3.1.0,59.96688252483221,
images/7009.jpg,Neutral,sounds/high 1 second.wav,num_2,0,6,6,17,,,,,,,,,,,,,,,,,,,,,,,,,,,103.03026177494485,None,103.03026177494485,None,num_2,1,1.8066815979923376,103.03026177494485,None,108.98970291389196,None,703,002,2019_May_02_1009,MAER M R1 P2 v1,3.1.0,59.96688252483221,
images/9102.jpg,Unpleasant,sounds/high 1 second.wav,num_2,0,7,7,39,,,,,,,,,,,,,,,,,,,,,,,,,,,110.00907057004451,None,110.00907057004451,None,num_2,1,2.2514000371379552,110.00907057004451,None,115.97999805295831,None,703,002,2019_May_02_1009,MAER M R1 P2 v1,3.1.0,59.96688252483221,
images/1590.jpg,Pleasant,sounds/low 1 second.wav,num_1,0,8,8,24,,,,,,,,,,,,,,,,,,,,,,,,,,,117.01732446427786,None,117.01732446427786,None,num_1,1,2.0330693609553236,117.01732446427786,None,122.98728984419449,None,703,002,2019_May_02_1009,MAER M R1 P2 v1,3.1.0,59.96688252483221,
images/2722.jpg,Unpleasant,sounds/low 1 second.wav,num_1,0,9,9,30,,,,,,,,,,,,,,,,,,,,,,,,,,,124.00855646691252,None,124.00855646691252,None,num_1,1,2.548976511105593,124.00855646691252,None,129.9776703165685,None,703,002,2019_May_02_1009,MAER M R1 P2 v1,3.1.0,59.96688252483221,
images/7030.jpg,Neutral,sounds/low 4 second.wav,num_1,0,10,10,10,,,,,,,,,,,,,,,,,,,,,,,,,,,130.997806573429,None,130.997806573429,None,num_1,1,5.319852373377671,130.997806573429,None,136.98432060564983,None,703,002,2019_May_02_1009,MAER M R1 P2 v1,3.1.0,59.96688252483221,
images/5510.jpg,Neutral,sounds/high 1 second.wav,num_2,0,11,11,9,,,,,,,,,,,,,,,,,,,,,,,,,,,138.02121764620688,None,138.02121764620688,None,num_2,1,1.8835221382846612,138.02121764620688,None,143.97482216718936,None,703,002,2019_May_02_1009,MAER M R1 P2 v1,3.1.0,59.96688252483221,
images/9330.jpg,Unpleasant,sounds/high 4 second.wav,num_2,0,12,12,33,,,,,,,,,,,,,,,,,,,,,,,,,,,145.00985239140573,None,145.00985239140573,None,num_2,1,5.28834425138939,145.00985239140573,None,150.96497578517165,None,703,002,2019_May_02_1009,MAER M R1 P2 v1,3.1.0,59.96688252483221,
images/7052.jpg,Neutral,sounds/high 4 second.wav,num_2,0,13,13,7,,,,,,,,,,,,,,,,,,,,,,,,,,,151.99977855405723,None,151.99977855405723,None,num_2,1,4.838148555673797,151.99977855405723,None,157.9719986563009,None,703,002,2019_May_02_1009,MAER M R1 P2 v1,3.1.0,59.96688252483221,
images/2441.jpg,Neutral,sounds/low 1 second.wav,num_1,0,14,14,12,,,,,,,,,,,,,,,,,,,,,,,,,,,158.99394884688854,None,158.99394884688854,None,num_1,1,1.8813088807337408,158.99394884688854,None,164.9622237859985,None,703,002,2019_May_02_1009,MAER M R1 P2 v1,3.1.0,59.96688252483221,
images/7090.jpg,Neutral,sounds/low 4 second.wav,num_1,0,15,15,2,,,,,,,,,,,,,,,,,,,,,,,,,,,165.98444890608107,None,165.98444890608107,None,num_1,1,5.8019660313339045,165.98444890608107,None,171.95240654951158,None,703,002,2019_May_02_1009,MAER M R1 P2 v1,3.1.0,59.96688252483221,
images/2357.jpg,Neutral,sounds/high 1 second.wav,num_2,0,16,16,1,,,,,,,,,,,,,,,,,,,,,,,,,,,172.9852854128717,None,172.9852854128717,None,num_2,1,1.6539866579573754,172.9852854128717,None,178.9597121623401,None,703,002,2019_May_02_1009,MAER M R1 P2 v1,3.1.0,59.96688252483221,
images/7130.jpg,Neutral,sounds/low 1 second.wav,num_1,0,17,17,8,,,,,,,,,,,,,,,,,,,,,,,,,,,179.99627087435965,None,179.99627087435965,None,num_1,1,1.800039121114878,179.99627087435965,None,185.9498699868932,None,703,002,2019_May_02_1009,MAER M R1 P2 v1,3.1.0,59.96688252483221,
images/7217.jpg,Neutral,sounds/low 4 second.wav,num_1,0,18,18,14,,,,,,,,,,,,,,,,,,,,,,,,,,,186.98549003252856,None,186.98549003252856,None,num_1,1,4.921137901630118,186.98549003252856,None,192.9568883509819,None,703,002,2019_May_02_1009,MAER M R1 P2 v1,3.1.0,59.96688252483221,
images/6220.jpg,Unpleasant,sounds/high 4 second.wav,num_2,0,19,19,37,,,,,,,,,,,,,,,,,,,,,,,,,,,193.99789040438964,None,193.99789040438964,None,num_2,1,4.832411994017093,193.99789040438964,None,199.94740794068503,None,703,002,2019_May_02_1009,MAER M R1 P2 v1,3.1.0,59.96688252483221,
images/2387.jpg,Pleasant,sounds/low 1 second.wav,num_1,0,20,20,20,,,,,,,,,,,,,,,,,,,,,,,,,,,200.98369142274032,None,200.98369142274032,None,num_1,1,3.069250683417522,200.98369142274032,None,206.9376841501794,None,703,002,2019_May_02_1009,MAER M R1 P2 v1,3.1.0,59.96688252483221,
images/8162.jpg,Pleasant,sounds/high 4 second.wav,num_2,0,21,21,23,,,,,,,,,,,,,,,,,,,,,,,,,,,207.97031362394318,None,207.97031362394318,None,num_2,1,4.707081402566928,207.97031362394318,None,213.92801835026694,None,703,002,2019_May_02_1009,MAER M R1 P2 v1,3.1.0,59.96688252483221,
images/2590.jpg,Unpleasant,sounds/low 4 second.wav,num_1,0,22,22,36,,,,,,,,,,,,,,,,,,,,,,,,,,,214.96439437689514,None,214.96439437689514,None,num_1,1,4.953253873200083,214.96439437689514,None,220.91831889778223,None,703,002,2019_May_02_1009,MAER M R1 P2 v1,3.1.0,59.96688252483221,
images/1419.jpg,Pleasant,sounds/low 4 second.wav,num_1,0,23,23,26,,,,,,,,,,,,,,,,,,,,,,,,,,,221.9522602209172,None,221.9522602209172,None,num_1,1,5.372922479497902,221.9522602209172,None,227.92504520562034,None,703,002,2019_May_02_1009,MAER M R1 P2 v1,3.1.0,59.96688252483221,
images/1910.jpg,Pleasant,sounds/high 1 second.wav,num_2,0,24,24,25,,,,,,,,,,,,,,,,,,,,,,,,,,,228.96028876310538,None,228.96028876310538,None,num_2,1,1.7683089522452065,228.96028876310538,None,234.9321116448118,None,703,002,2019_May_02_1009,MAER M R1 P2 v1,3.1.0,59.96688252483221,
images/2456.jpg,Unpleasant,sounds/high 1 second.wav,num_2,0,25,25,31,,,,,,,,,,,,,,,,,,,,,,,,,,,235.97951369629664,None,235.97951369629664,None,num_2,1,1.656093549342586,235.97951369629664,None,241.93917748306376,None,703,002,2019_May_02_1009,MAER M R1 P2 v1,3.1.0,59.96688252483221,
images/7010.jpg,Neutral,sounds/low 1 second.wav,num_1,0,26,26,0,,,,,,,,,,,,,,,,,,,,,,,,,,,242.97392827074418,None,242.97392827074418,None,num_1,1,2.2025154696666505,242.97392827074418,None,248.92960062209204,None,703,002,2019_May_02_1009,MAER M R1 P2 v1,3.1.0,59.96688252483221,
images/2850.jpg,Neutral,sounds/high 4 second.wav,num_2,0,27,27,15,,,,,,,,,,,,,,,,,,,,,,,,,,,249.96111325112088,None,249.96111325112088,None,num_2,1,5.30928246106123,249.96111325112088,None,255.919868418443,None,703,002,2019_May_02_1009,MAER M R1 P2 v1,3.1.0,59.96688252483221,
images/2057.jpg,Pleasant,sounds/high 1 second.wav,num_2,0,28,28,21,,,,,,,,,,,,,,,,,,,,,,,,,,,256.9458476031259,None,256.9458476031259,None,num_2,1,1.644001158610081,256.9458476031259,None,262.9101160833452,None,703,002,2019_May_02_1009,MAER M R1 P2 v1,3.1.0,59.96688252483221,
images/2890.jpg,Neutral,sounds/high 1 second.wav,num_2,0,29,29,5,,,,,,,,,,,,,,,,,,,,,,,,,,,263.9433419888546,None,263.9433419888546,None,num_2,1,2.003634177312051,263.9433419888546,None,269.90044307216704,None,703,002,2019_May_02_1009,MAER M R1 P2 v1,3.1.0,59.96688252483221,
images/7481.jpg,Pleasant,sounds/low 4 second.wav,num_1,0,30,30,22,,,,,,,,,,,,,,,,,,,,,,,,,,,270.9360402821285,None,270.9360402821285,None,num_1,1,5.17117320678426,270.9360402821285,None,276.90740374613233,None,703,002,2019_May_02_1009,MAER M R1 P2 v1,3.1.0,59.96688252483221,
images/9342.jpg,Unpleasant,sounds/high 1 second.wav,num_2,0,31,31,35,,,,,,,,,,,,,,,,,,,,,,,,,,,277.9437040544735,None,277.9437040544735,None,num_2,1,1.7004996205077987,277.9437040544735,None,283.8979086128347,None,703,002,2019_May_02_1009,MAER M R1 P2 v1,3.1.0,59.96688252483221,
