ReactivityImage2,ImageCategory,SoundFile,CorrectAns,reac_2_loop.thisRepN,reac_2_loop.thisTrialN,reac_2_loop.thisN,reac_2_loop.thisIndex,slide1_headphones.started,slide1_headphones.stopped,slide1_headphones_resp.keys,slide1_headphones_resp.rt,slide1_headphones_resp.started,slide1_headphones_resp.stopped,reac_info_1.started,reac_info_1.stopped,reac_info_1_resp.keys,reac_info_1_resp.rt,reac_info_1_resp.started,reac_info_1_resp.stopped,reac_info_2.started,reac_info_2.stopped,reac_info_2_resp.keys,reac_info_2_resp.rt,reac_info_2_resp.started,reac_info_2_resp.stopped,reac_info_3.started,reac_info_3.stopped,reac_info_3_resp.keys,reac_info_3_resp.rt,reac_info_3_resp.started,reac_info_3_resp.stopped,blank_5seconds.started,blank_5seconds.stopped,reac_2_image.started,reac_2_image.stopped,reac_2_sound.started,reac_2_sound.stopped,reac_2_keys.keys,reac_2_keys.corr,reac_2_keys.rt,reac_2_keys.started,reac_2_keys.stopped,blank_1second.started,blank_1second.stopped,postreac2_slide1_text.started,postreac2_slide1_text.stopped,postreac2_slide1_resp.keys,postreac2_slide1_resp.rt,postreac2_slide1_resp.started,postreac2_slide1_resp.stopped,participant,session,date,expName,psychopyVersion,frameRate,
,,,,,,,,14.150648006732808,None,space,18.971203940713167,14.150648006732808,None,,,,,,,,,,,,,,,,,,,,,,,,,,,,,,,,,,,,,,812,002,2019_May_06_1246,MAER M R1 P2 v1,3.1.0,59.97623029395816,
,,,,,,,,,,,,,,33.13800156183788,None,space,3.7879048558515933,36.14081335188712,None,,,,,,,,,,,,,,,,,,,,,,,,,,,,,,,,812,002,2019_May_06_1246,MAER M R1 P2 v1,3.1.0,59.97623029395816,
,,,,,,,,,,,,,,,,,,,,39.9445216817021,None,space,8.909542568813777,42.947685621560595,None,,,,,,,,,,,,,,,,,,,,,,,,,,812,002,2019_May_06_1246,MAER M R1 P2 v1,3.1.0,59.97623029395816,
,,,,,,,,,,,,,,,,,,,,,,,,,,51.87321014299596,None,space,3.9878760709107155,56.878389930197955,None,,,,,,,,,,,,,,,,,,,,812,002,2019_May_06_1246,MAER M R1 P2 v1,3.1.0,59.97623029395816,
images/2357.jpg,Neutral,sounds/high 1 second.wav,num_2,0,0,0,1,,,,,,,,,,,,,,,,,,,,,,,,,60.882282808148375,None,65.95482056134279,None,65.95482056134279,None,num_2,1,3.1862617104088713,65.95482056134279,None,71.89325503909276,None,,,,,,,812,002,2019_May_06_1246,MAER M R1 P2 v1,3.1.0,59.97623029395816,
images/5510.jpg,Neutral,sounds/high 1 second.wav,num_2,0,1,1,9,,,,,,,,,,,,,,,,,,,,,,,,,,,72.92710198432906,None,72.92710198432906,None,num_2,1,2.320218957858742,72.92710198432906,None,78.88378124766132,None,,,,,,,812,002,2019_May_06_1246,MAER M R1 P2 v1,3.1.0,59.97623029395816,
images/2441.jpg,Neutral,sounds/low 1 second.wav,num_1,0,2,2,12,,,,,,,,,,,,,,,,,,,,,,,,,,,79.92122691157783,None,79.92122691157783,None,num_1,1,2.416557771650332,79.92122691157783,None,85.87394989797576,None,,,,,,,812,002,2019_May_06_1246,MAER M R1 P2 v1,3.1.0,59.97623029395816,
images/7010.jpg,Neutral,sounds/low 1 second.wav,num_1,0,3,3,0,,,,,,,,,,,,,,,,,,,,,,,,,,,86.90705498494754,None,86.90705498494754,None,num_1,1,2.2874987718314514,86.90705498494754,None,92.86429402225622,None,,,,,,,812,002,2019_May_06_1246,MAER M R1 P2 v1,3.1.0,59.97623029395816,
images/2057.jpg,Pleasant,sounds/high 1 second.wav,num_2,0,4,4,21,,,,,,,,,,,,,,,,,,,,,,,,,,,93.8996577356229,None,93.8996577356229,None,num_2,1,2.735666496100748,93.8996577356229,None,99.85439416561167,None,,,,,,,812,002,2019_May_06_1246,MAER M R1 P2 v1,3.1.0,59.97623029395816,
images/2850.jpg,Neutral,sounds/high 4 second.wav,num_2,0,5,5,15,,,,,,,,,,,,,,,,,,,,,,,,,,,100.8780918648281,None,100.8780918648281,None,num_2,1,5.36681060139199,100.8780918648281,None,106.84481010201307,None,,,,,,,812,002,2019_May_06_1246,MAER M R1 P2 v1,3.1.0,59.97623029395816,
images/9342.jpg,Unpleasant,sounds/high 1 second.wav,num_2,0,6,6,35,,,,,,,,,,,,,,,,,,,,,,,,,,,107.88251296749695,None,107.88251296749695,None,num_2,1,2.015988262473911,107.88251296749695,None,113.83505747523668,None,,,,,,,812,002,2019_May_06_1246,MAER M R1 P2 v1,3.1.0,59.97623029395816,
images/1419.jpg,Pleasant,sounds/low 4 second.wav,num_1,0,7,7,26,,,,,,,,,,,,,,,,,,,,,,,,,,,114.86909792258666,None,114.86909792258666,None,num_1,1,5.840342426630741,114.86909792258666,None,120.82555363689426,None,,,,,,,812,002,2019_May_06_1246,MAER M R1 P2 v1,3.1.0,59.97623029395816,
images/7950.jpg,Neutral,sounds/low 4 second.wav,num_1,0,8,8,6,,,,,,,,,,,,,,,,,,,,,,,,,,,121.86085695596557,None,121.86085695596557,None,num_1,1,5.6385705001230235,121.86085695596557,None,127.81578568619261,None,,,,,,,812,002,2019_May_06_1246,MAER M R1 P2 v1,3.1.0,59.97623029395816,
images/7009.jpg,Neutral,sounds/high 1 second.wav,num_2,0,9,9,17,,,,,,,,,,,,,,,,,,,,,,,,,,,128.85282391397777,None,128.85282391397777,None,num_2,1,2.3337388664913306,128.85282391397777,None,134.82268505818138,None,,,,,,,812,002,2019_May_06_1246,MAER M R1 P2 v1,3.1.0,59.97623029395816,
images/2540.jpg,Pleasant,sounds/low 1 second.wav,num_1,0,10,10,28,,,,,,,,,,,,,,,,,,,,,,,,,,,135.8561633278041,None,135.8561633278041,None,num_1,1,2.871538032330136,135.8561633278041,None,141.81297179286048,None,,,,,,,812,002,2019_May_06_1246,MAER M R1 P2 v1,3.1.0,59.97623029395816,
images/2722.jpg,Unpleasant,sounds/low 1 second.wav,num_1,0,11,11,30,,,,,,,,,,,,,,,,,,,,,,,,,,,142.84713062504488,None,142.84713062504488,None,num_1,1,2.46974260913521,142.84713062504488,None,148.80340155084195,None,,,,,,,812,002,2019_May_06_1246,MAER M R1 P2 v1,3.1.0,59.97623029395816,
images/2890.jpg,Neutral,sounds/high 1 second.wav,num_2,0,12,12,5,,,,,,,,,,,,,,,,,,,,,,,,,,,149.8212461115545,None,149.8212461115545,None,num_2,1,2.3869825959263835,149.8212461115545,None,155.79363990999082,None,,,,,,,812,002,2019_May_06_1246,MAER M R1 P2 v1,3.1.0,59.97623029395816,
images/9102.jpg,Unpleasant,sounds/high 1 second.wav,num_2,0,13,13,39,,,,,,,,,,,,,,,,,,,,,,,,,,,156.8112900671822,None,156.8112900671822,None,num_2,1,2.619910466211877,156.8112900671822,None,162.78388337711658,None,,,,,,,812,002,2019_May_06_1246,MAER M R1 P2 v1,3.1.0,59.97623029395816,
images/7052.jpg,Neutral,sounds/high 4 second.wav,num_2,0,14,14,7,,,,,,,,,,,,,,,,,,,,,,,,,,,163.81954786007373,None,163.81954786007373,None,num_2,1,5.538293137075016,163.81954786007373,None,169.77435970781153,None,,,,,,,812,002,2019_May_06_1246,MAER M R1 P2 v1,3.1.0,59.97623029395816,
images/2339.jpg,Pleasant,sounds/high 4 second.wav,num_2,0,15,15,27,,,,,,,,,,,,,,,,,,,,,,,,,,,170.81689261443898,None,170.81689261443898,None,num_2,1,4.69722117141464,170.81689261443898,None,176.76450281825055,None,,,,,,,812,002,2019_May_06_1246,MAER M R1 P2 v1,3.1.0,59.97623029395816,
images/7040.jpg,Neutral,sounds/high 4 second.wav,num_2,0,16,16,3,,,,,,,,,,,,,,,,,,,,,,,,,,,177.79819141625921,None,177.79819141625921,None,num_2,1,5.873944189062968,177.79819141625921,None,183.7547441820916,None,,,,,,,812,002,2019_May_06_1246,MAER M R1 P2 v1,3.1.0,59.97623029395816,
images/7036.jpg,Neutral,sounds/high 4 second.wav,num_2,0,17,17,19,,,,,,,,,,,,,,,,,,,,,,,,,,,184.7899327219584,None,184.7899327219584,None,num_2,1,4.7713000307376205,184.7899327219584,None,190.74521840950365,None,,,,,,,812,002,2019_May_06_1246,MAER M R1 P2 v1,3.1.0,59.97623029395816,
images/7090.jpg,Neutral,sounds/low 4 second.wav,num_1,0,18,18,2,,,,,,,,,,,,,,,,,,,,,,,,,,,191.77841904565685,None,191.77841904565685,None,num_1,1,5.3571270825141255,191.77841904565685,None,197.73560520039973,None,,,,,,,812,002,2019_May_06_1246,MAER M R1 P2 v1,3.1.0,59.97623029395816,
images/1910.jpg,Pleasant,sounds/high 1 second.wav,num_2,0,19,19,25,,,,,,,,,,,,,,,,,,,,,,,,,,,198.76939054946524,None,198.76939054946524,None,num_2,1,1.7029718499488808,198.76939054946524,None,204.72573599160387,None,,,,,,,812,002,2019_May_06_1246,MAER M R1 P2 v1,3.1.0,59.97623029395816,
images/9265.jpg,Unpleasant,sounds/low 4 second.wav,num_1,0,20,20,32,,,,,,,,,,,,,,,,,,,,,,,,,,,205.7615083429755,None,205.7615083429755,None,num_1,1,5.471682738259915,205.7615083429755,None,211.71627421893754,None,,,,,,,812,002,2019_May_06_1246,MAER M R1 P2 v1,3.1.0,59.97623029395816,
images/7161.jpg,Neutral,sounds/low 4 second.wav,num_1,0,21,21,18,,,,,,,,,,,,,,,,,,,,,,,,,,,212.75125513464263,None,212.75125513464263,None,num_1,1,4.570980571967084,212.75125513464263,None,218.72273730976121,None,,,,,,,812,002,2019_May_06_1246,MAER M R1 P2 v1,3.1.0,59.97623029395816,
images/7217.jpg,Neutral,sounds/low 4 second.wav,num_1,0,22,22,14,,,,,,,,,,,,,,,,,,,,,,,,,,,219.7560166688254,None,219.7560166688254,None,num_1,1,5.407447848325319,219.7560166688254,None,225.7299608879348,None,,,,,,,812,002,2019_May_06_1246,MAER M R1 P2 v1,3.1.0,59.97623029395816,
images/7130.jpg,Neutral,sounds/low 1 second.wav,num_1,0,23,23,8,,,,,,,,,,,,,,,,,,,,,,,,,,,226.76591892922443,None,226.76591892922443,None,num_1,1,1.950780453522384,226.76591892922443,None,232.7371063441351,None,,,,,,,812,002,2019_May_06_1246,MAER M R1 P2 v1,3.1.0,59.97623029395816,
images/1590.jpg,Pleasant,sounds/low 1 second.wav,num_1,0,24,24,24,,,,,,,,,,,,,,,,,,,,,,,,,,,233.7708589420672,None,233.7708589420672,None,num_1,1,1.6861077199828287,233.7708589420672,None,239.7274423557501,None,,,,,,,812,002,2019_May_06_1246,MAER M R1 P2 v1,3.1.0,59.97623029395816,
images/2456.jpg,Unpleasant,sounds/high 1 second.wav,num_2,0,25,25,31,,,,,,,,,,,,,,,,,,,,,,,,,,,240.77412323861245,None,240.77412323861245,None,num_2,1,2.5074436718059587,240.77412323861245,None,246.71773389793452,None,,,,,,,812,002,2019_May_06_1246,MAER M R1 P2 v1,3.1.0,59.97623029395816,
images/9210.jpg,Neutral,sounds/low 1 second.wav,num_1,0,26,26,16,,,,,,,,,,,,,,,,,,,,,,,,,,,247.75276288869827,None,247.75276288869827,None,num_1,1,2.536048632729944,247.75276288869827,None,253.7080422663912,None,,,,,,,812,002,2019_May_06_1246,MAER M R1 P2 v1,3.1.0,59.97623029395816,
images/2900.jpg,Unpleasant,sounds/low 1 second.wav,num_1,0,27,27,38,,,,,,,,,,,,,,,,,,,,,,,,,,,254.74148538112604,None,254.74148538112604,None,num_1,1,2.487119639894445,254.74148538112604,None,260.71499902798314,None,,,,,,,812,002,2019_May_06_1246,MAER M R1 P2 v1,3.1.0,59.97623029395816,
images/2840.jpg,Neutral,sounds/low 1 second.wav,num_1,0,28,28,4,,,,,,,,,,,,,,,,,,,,,,,,,,,261.74792052832163,None,261.74792052832163,None,num_1,1,1.970928110058594,261.74792052832163,None,267.7053557719664,None,,,,,,,812,002,2019_May_06_1246,MAER M R1 P2 v1,3.1.0,59.97623029395816,
images/2387.jpg,Pleasant,sounds/low 1 second.wav,num_1,0,29,29,20,,,,,,,,,,,,,,,,,,,,,,,,,,,268.7259958973955,None,268.7259958973955,None,num_1,1,2.3501889500075777,268.7259958973955,None,274.7123044208929,None,,,,,,,812,002,2019_May_06_1246,MAER M R1 P2 v1,3.1.0,59.97623029395816,
images/8162.jpg,Pleasant,sounds/high 4 second.wav,num_2,0,30,30,23,,,,,,,,,,,,,,,,,,,,,,,,,,,275.74542453132017,None,275.74542453132017,None,num_2,1,4.406198798182231,275.74542453132017,None,281.7025881508798,None,,,,,,,812,002,2019_May_06_1246,MAER M R1 P2 v1,3.1.0,59.97623029395816,
images/5594.jpg,Pleasant,sounds/high 1 second.wav,num_2,0,31,31,29,,,,,,,,,,,,,,,,,,,,,,,,,,,282.7384800889631,None,282.7384800889631,None,num_2,1,1.7675694061144895,282.7384800889631,None,288.7091068284917,None,,,,,,,812,002,2019_May_06_1246,MAER M R1 P2 v1,3.1.0,59.97623029395816,
images/7006.jpg,Neutral,sounds/high 1 second.wav,num_2,0,32,32,13,,,,,,,,,,,,,,,,,,,,,,,,,,,289.7281036882887,None,289.7281036882887,None,num_2,1,1.6013216434821516,289.7281036882887,None,295.6997541261171,None,,,,,,,812,002,2019_May_06_1246,MAER M R1 P2 v1,3.1.0,59.97623029395816,
images/6220.jpg,Unpleasant,sounds/high 4 second.wav,num_2,0,33,33,37,,,,,,,,,,,,,,,,,,,,,,,,,,,296.73873969428496,None,296.73873969428496,None,num_2,1,5.5851675220528705,296.73873969428496,None,302.69005979035137,None,,,,,,,812,002,2019_May_06_1246,MAER M R1 P2 v1,3.1.0,59.97623029395816,
images/7030.jpg,Neutral,sounds/low 4 second.wav,num_1,0,34,34,10,,,,,,,,,,,,,,,,,,,,,,,,,,,303.72630808481335,None,303.72630808481335,None,num_1,1,5.0707334361140965,303.72630808481335,None,309.68045229016025,None,,,,,,,812,002,2019_May_06_1246,MAER M R1 P2 v1,3.1.0,59.97623029395816,
images/9001.jpg,Unpleasant,sounds/low 1 second.wav,num_1,0,35,35,34,,,,,,,,,,,,,,,,,,,,,,,,,,,310.7175761516464,None,310.7175761516464,None,num_1,1,1.4661892612930387,310.7175761516464,None,316.67073181358137,None,,,,,,,812,002,2019_May_06_1246,MAER M R1 P2 v1,3.1.0,59.97623029395816,
images/7004.jpg,Neutral,sounds/high 4 second.wav,num_2,0,36,36,11,,,,,,,,,,,,,,,,,,,,,,,,,,,317.7048317538174,None,317.7048317538174,None,num_2,1,5.489978002655334,317.7048317538174,None,323.67779373936537,None,,,,,,,812,002,2019_May_06_1246,MAER M R1 P2 v1,3.1.0,59.97623029395816,
images/2590.jpg,Unpleasant,sounds/low 4 second.wav,num_1,0,37,37,36,,,,,,,,,,,,,,,,,,,,,,,,,,,324.7145215825476,None,324.7145215825476,None,num_1,1,5.153875345577035,324.7145215825476,None,330.6680423144662,None,,,,,,,812,002,2019_May_06_1246,MAER M R1 P2 v1,3.1.0,59.97623029395816,
images/9330.jpg,Unpleasant,sounds/high 4 second.wav,num_2,0,38,38,33,,,,,,,,,,,,,,,,,,,,,,,,,,,331.701494443274,None,331.701494443274,None,num_2,1,5.207444783540268,331.701494443274,None,337.6582863825297,None,,,,,,,812,002,2019_May_06_1246,MAER M R1 P2 v1,3.1.0,59.97623029395816,
images/7481.jpg,Pleasant,sounds/low 4 second.wav,num_1,0,39,39,22,,,,,,,,,,,,,,,,,,,,,,,,,,,338.69158286833226,None,338.69158286833226,None,num_1,1,5.373979494183004,338.69158286833226,None,344.6652963271554,None,,,,,,,812,002,2019_May_06_1246,MAER M R1 P2 v1,3.1.0,59.97623029395816,
,,,,,,,,,,,,,,,,,,,,,,,,,,,,,,,,,,,,,,,,,,,,,345.6953047793522,None,space,2.3540145228744223,348.7193185720862,None,812,002,2019_May_06_1246,MAER M R1 P2 v1,3.1.0,59.97623029395816,
